time,seconds_elapsed,z,y,x
1664051593119922000,0.204921875,-0.33000001311302185,-0.18299999833106995,0.01600000075995922
1664051593129815000,0.21481494140625,-0.2879999876022339,-0.23399999737739563,-0.024000000208616257
1664051593139708000,0.2247080078125,-0.2879999876022339,-0.23399999737739563,-0.014999999664723873
1664051593149600800,0.234600830078125,-0.2879999876022339,-0.23399999737739563,-0.014000000432133675
1664051593159494000,0.244493896484375,-0.2879999876022339,-0.23399999737739563,-0.004999999888241291
1664051593169386800,0.25438671875,0.11400000005960464,0.061000000685453415,0.003000000026077032
1664051593179279600,0.264279541015625,0.04500000178813934,0.1420000046491623,0.012000000104308128
1664051593189172500,0.27417236328125,-0.00800000037997961,0.1420000046491623,-0.014000000432133675
1664051593199065300,0.2840654296875,-0.03500000014901161,0.1420000046491623,0.012000000104308128
1664051593208958200,0.293958251953125,0.004999999888241291,0.1420000046491623,-0.0010000000474974513
1664051593218851300,0.303851318359375,0.04500000178813934,0.1420000046491623,-0.014000000432133675
1664051593228744200,0.313744140625,0.05900000035762787,0.15600000321865082,0.012000000104308128
1664051593238637000,0.323636962890625,0.05900000035762787,0.1289999932050705,0.012000000104308128
1664051593248530000,0.333530029296875,0.04500000178813934,0.15600000321865082,-0.0010000000474974513
1664051593258422800,0.3434228515625,0.03200000151991844,0.1420000046491623,-0.014000000432133675
1664051593268316000,0.35331591796875,0.03200000151991844,0.15600000321865082,0.012000000104308128
1664051593278208800,0.363208740234375,0.017999999225139618,0.1420000046491623,0
1664051593288102000,0.373101806640625,-0.00800000037997961,0.15600000321865082,-0.014000000432133675
1664051593297994800,0.382994873046875,0.03200000151991844,0.1289999932050705,0.012000000104308128
1664051593307887600,0.3928876953125,0.0729999989271164,0.1289999932050705,0.012000000104308128
1664051593317780700,0.40278076171875,0.04500000178813934,0.15700000524520874,0.010999999940395355
1664051593327673600,0.412673583984375,0.004999999888241291,0.1289999932050705,-0.0020000000949949026
1664051593337566500,0.42256640625,0.017999999225139618,0.14300000667572021,-0.0020000000949949026
1664051593347459300,0.432459228515625,0.04500000178813934,0.16899999976158142,0.006000000052154064
1664051593357352400,0.4423525390625,0.07199999690055847,0.15600000321865082,0.019999999552965164
1664051593367245300,0.452245361328125,0.07199999690055847,0.13300000131130219,0.017999999225139618
1664051593377138200,0.46213818359375,0.04500000178813934,0.13300000131130219,0.017000000923871994
1664051593387031300,0.47203125,0.04500000178813934,0.12300000339746475,0.004000000189989805
1664051593396924200,0.481924072265625,0.017999999225139618,0.10899999737739563,0.004000000189989805
1664051593406817000,0.491817138671875,0.04500000178813934,0.10100000351667404,0.003000000026077032
1664051593416710000,0.5017099609375,0.04500000178813934,0.11500000208616257,0.003000000026077032
1664051593426602800,0.511602783203125,0.03200000151991844,0.11900000274181366,0.01600000075995922
1664051593436496000,0.521495849609375,0.04500000178813934,0.11900000274181366,0.01600000075995922
1664051593446388700,0.531388671875,0.017999999225139618,0.09799999743700027,0.0020000000949949026
1664051593456281600,0.541281494140625,0.017999999225139618,0.09799999743700027,0.003000000026077032
1664051593466175000,0.551175048828125,0.017999999225139618,0.09099999815225601,0.003000000026077032
1664051593476067800,0.56106787109375,0.05900000035762787,0.09000000357627869,0.01600000075995922
1664051593485960700,0.570960693359375,0.05900000035762787,0.08399999886751175,0.02800000086426735
1664051593495853300,0.580853271484375,0.03200000151991844,0.08399999886751175,0.0010000000474974513
1664051593505746200,0.59074609375,0.017999999225139618,0.09000000357627869,0.014000000432133675
1664051593515639300,0.600639404296875,0.017999999225139618,0.09000000357627869,-0.012000000104308128
1664051593525532200,0.6105322265625,0.05900000035762787,0.08299999684095383,0.0010000000474974513
1664051593535425300,0.62042529296875,0.017999999225139618,0.07000000029802322,0.02800000086426735
1664051593545318100,0.630318115234375,0.03200000151991844,0.06499999761581421,0.014000000432133675
1664051593555211000,0.6402109375,0.03200000151991844,0.06400000303983688,0
1664051593565104000,0.650104248046875,0.04600000008940697,0.05999999865889549,0
1664051593574997000,0.6599970703125,0.04600000008940697,0.0729999989271164,0.02800000086426735
1664051593584889900,0.669889892578125,0.05900000035762787,0.06800000369548798,0.013000000268220901
1664051593594783000,0.679782958984375,0.04600000008940697,0.08100000023841858,0.013000000268220901
1664051593604676000,0.689676025390625,0.017999999225139618,0.05000000074505806,0.013000000268220901
1664051593614568700,0.699568603515625,0.03200000151991844,0.05000000074505806,0.013000000268220901
1664051593624461600,0.709461669921875,0.04600000008940697,0.03400000184774399,0
1664051593634354400,0.7193544921875,0.04600000008940697,0.04699999839067459,-0.013000000268220901
1664051593644247600,0.72924755859375,0.04600000008940697,0.04399999976158142,0
1664051593654140400,0.739140380859375,0.04600000008940697,0.029999999329447746,0.013000000268220901
1664051593664033300,0.749033203125,0.04600000008940697,0.06599999964237213,0.02500000037252903
1664051593673926400,0.758926513671875,0.0729999989271164,0.03799999877810478,0.012000000104308128
1664051593683819500,0.768819580078125,0.03200000151991844,0.023000000044703484,-0.0010000000474974513
1664051593693712400,0.77871240234375,0.01899999938905239,0.06400000303983688,0.026000000536441803
1664051593703605200,0.788605224609375,0.03200000151991844,0.04699999839067459,0.010999999940395355
1664051593713498000,0.798498046875,0.04600000008940697,0.032999999821186066,0.02500000037252903
1664051593723391200,0.80839111328125,0.05900000035762787,0.029999999329447746,0.010999999940395355
1664051593733284000,0.8182841796875,0.04600000008940697,0.057999998331069946,0.024000000208616257
1664051593743177000,0.828177001953125,0.04600000008940697,0.02800000086426735,-0.0020000000949949026
1664051593753069800,0.83806982421875,0.01899999938905239,0.02800000086426735,0.024000000208616257
1664051593762963000,0.847962890625,0.05999999865889549,0.026000000536441803,-0.0010000000474974513
1664051593772855800,0.857855712890625,0.04600000008940697,0.013000000268220901,0.010999999940395355
1664051593782748700,0.867748779296875,0.04600000008940697,0.024000000208616257,0.009999999776482582
1664051593792641800,0.877641845703125,0.05999999865889549,0.024000000208616257,0.009999999776482582
1664051593802534700,0.88753466796875,0.05999999865889549,0.009999999776482582,-0.014999999664723873
1664051593812427500,0.897427490234375,0.04600000008940697,0.024000000208616257,0.012000000104308128
1664051593822320600,0.907320556640625,0.04600000008940697,0.02199999988079071,0.010999999940395355
1664051593832213500,0.917213623046875,0.03200000151991844,0.02199999988079071,-0.0010000000474974513
1664051593842106600,0.927106689453125,0.03200000151991844,0.00800000037997961,0.009999999776482582
1664051593851999500,0.93699951171875,0.03200000151991844,0.03500000014901161,0.024000000208616257
1664051593861892400,0.946892333984375,0.04600000008940697,0.04500000178813934,0.009999999776482582
1664051593871785500,0.956785400390625,0.04600000008940697,0.017000000923871994,0.009999999776482582
1664051593881678300,0.96667822265625,0.01899999938905239,0.01600000075995922,0.008999999612569809
1664051593891571200,0.9765712890625,0.03200000151991844,0.01600000075995922,-0.017000000923871994
1664051593901464000,0.986464111328125,0.04600000008940697,0.014999999664723873,-0.003000000026077032
1664051593911357000,0.99635693359375,0.0729999989271164,-0.010999999940395355,0.008999999612569809
1664051593921249800,1.006249755859375,0.04600000008940697,-0.009999999776482582,0.008999999612569809
1664051593931143000,1.016142822265625,0.04600000008940697,0.01600000075995922,0.008999999612569809
1664051593941036000,1.0260361328125,0.01899999938905239,0.027000000700354576,-0.003000000026077032
1664051593950929000,1.035928955078125,0.03200000151991844,0.014000000432133675,-0.003000000026077032
1664051593960821800,1.04582177734375,0.03200000151991844,0.013000000268220901,-0.003000000026077032
1664051593970715000,1.05571484375,0.05999999865889549,0,-0.003000000026077032
1664051593980607700,1.065607666015625,0.04600000008940697,0,0.008999999612569809
1664051593990500600,1.07550048828125,0.03200000151991844,-0.014000000432133675,-0.017000000923871994
1664051594000393700,1.085393798828125,0.04600000008940697,0.012000000104308128,-0.01600000075995922
1664051594010286600,1.09528662109375,0.04600000008940697,0.012000000104308128,0.009999999776482582
1664051594020179500,1.105179443359375,0.04600000008940697,0.010999999940395355,0.009999999776482582
1664051594030072300,1.115072265625,0.0729999989271164,0.024000000208616257,0.009999999776482582
1664051594039965400,1.12496533203125,0.04600000008940697,-0.0020000000949949026,0.008999999612569809
1664051594049858600,1.134858642578125,0.04600000008940697,0.010999999940395355,-0.003000000026077032
1664051594059751400,1.14475146484375,0.032999999821186066,0.023000000044703484,0.008999999612569809
1664051594069644300,1.154644287109375,0.01899999938905239,0.008999999612569809,0.008999999612569809
1664051594079537200,1.164537109375,0.04600000008940697,0.008999999612569809,-0.004000000189989805
1664051594089430000,1.174429931640625,0.05999999865889549,0.008999999612569809,0.008999999612569809
1664051594099323100,1.1843232421875,0.04600000008940697,-0.003000000026077032,0.00800000037997961
1664051594109216000,1.194216064453125,0.05999999865889549,0.008999999612569809,-0.017999999225139618
1664051594119108900,1.20410888671875,0.04600000008940697,0.008999999612569809,-0.004000000189989805
1664051594129002000,1.214001953125,0.04600000008940697,0.00800000037997961,0.008999999612569809
1664051594138894800,1.223894775390625,0.05999999865889549,0.00800000037997961,-0.004000000189989805
1664051594148788000,1.2337880859375,0.04600000008940697,0.00800000037997961,-0.017000000923871994
1664051594158680800,1.243680908203125,0.032999999821186066,-0.004000000189989805,0.00800000037997961
1664051594168573700,1.25357373046875,0.032999999821186066,-0.004000000189989805,0.00800000037997961
1664051594178466800,1.263466796875,0.04600000008940697,0.019999999552965164,0.00800000037997961
1664051594188359700,1.273359619140625,0.05999999865889549,0.007000000216066837,0.00800000037997961
1664051594198252500,1.28325244140625,0.04600000008940697,-0.004999999888241291,0.019999999552965164
1664051594208145400,1.2931455078125,0.032999999821186066,0.007000000216066837,-0.006000000052154064
1664051594218038500,1.30303857421875,0.032999999821186066,-0.004999999888241291,0.01899999938905239
1664051594227931400,1.312931396484375,0.04600000008940697,-0.004999999888241291,0.004999999888241291
1664051594237824500,1.322824462890625,0.032999999821186066,0.007000000216066837,0.004999999888241291
1664051594247717400,1.33271728515625,0.04600000008940697,-0.006000000052154064,-0.00800000037997961
1664051594257610500,1.342610595703125,0.032999999821186066,0.007000000216066837,0.017000000923871994
1664051594267503400,1.35250341796875,0.032999999821186066,0.019999999552965164,-0.008999999612569809
1664051594277396200,1.362396240234375,0.04600000008940697,-0.006000000052154064,-0.00800000037997961
1664051594287289000,1.3722890625,0.04600000008940697,-0.01899999938905239,0.004000000189989805
1664051594297182200,1.38218212890625,0.032999999821186066,-0.029999999329447746,0.004000000189989805
1664051594307075000,1.392074951171875,0.04600000008940697,0.008999999612569809,-0.008999999612569809
1664051594316968000,1.401968017578125,0.04600000008940697,0.02199999988079071,0.004000000189989805
1664051594326861000,1.411861083984375,0.032999999821186066,0.02199999988079071,0.017000000923871994
1664051594336754000,1.42175390625,0.032999999821186066,0.007000000216066837,0.01600000075995922
1664051594346646800,1.431646728515625,0.04600000008940697,0.007000000216066837,-0.009999999776482582
1664051594356540000,1.441539794921875,0.032999999821186066,0.007000000216066837,-0.008999999612569809
1664051594366433000,1.45143310546875,0.04600000008940697,0.007000000216066837,-0.008999999612569809
1664051594376325600,1.46132568359375,0.032999999821186066,0.006000000052154064,-0.00800000037997961
1664051594386218500,1.471218505859375,0.07400000095367432,-0.006000000052154064,-0.00800000037997961
1664051594396111600,1.481111572265625,0.032999999821186066,0.006000000052154064,0.004000000189989805
1664051594406004700,1.491004638671875,0.05999999865889549,0.01899999938905239,0.017999999225139618
1664051594415897600,1.500897705078125,0.05999999865889549,-0.006000000052154064,0.01600000075995922
1664051594425790500,1.51079052734375,0.05999999865889549,-0.006000000052154064,0.003000000026077032
1664051594435683600,1.52068359375,0.032999999821186066,0.006000000052154064,0.003000000026077032
1664051594445576400,1.530576416015625,0.032999999821186066,0.006000000052154064,-0.009999999776482582
1664051594455469300,1.54046923828125,0.032999999821186066,-0.006000000052154064,0.0020000000949949026
1664051594465362200,1.550362060546875,0.032999999821186066,0.007000000216066837,-0.009999999776482582
1664051594475255300,1.56025537109375,0.05999999865889549,0.01899999938905239,-0.008999999612569809
1664051594485148200,1.570148193359375,0.04600000008940697,-0.020999999716877937,-0.008999999612569809
1664051594495041300,1.580041259765625,0.05999999865889549,0.004999999888241291,0.003000000026077032
1664051594504934100,1.58993408203125,0.032999999821186066,0.004999999888241291,-0.008999999612569809
1664051594514827000,1.599826904296875,0.032999999821186066,-0.007000000216066837,0.003000000026077032
1664051594524720000,1.60972021484375,0.032999999821186066,-0.007000000216066837,-0.009999999776482582
1664051594534613000,1.619613037109375,0.05999999865889549,0.017000000923871994,0.01600000075995922
1664051594544505900,1.629505859375,0.04600000008940697,0.017999999225139618,0.0020000000949949026
1664051594554399000,1.63939892578125,0.032999999821186066,-0.00800000037997961,-0.009999999776482582
1664051594564291800,1.649291748046875,0.04600000008940697,0.004999999888241291,-0.009999999776482582
1664051594574184700,1.659184814453125,0.032999999821186066,0.004000000189989805,0.003000000026077032
1664051594584077800,1.669077880859375,0.032999999821186066,-0.00800000037997961,-0.009999999776482582
1664051594593970700,1.678970703125,0.04600000008940697,0.004000000189989805,-0.008999999612569809
1664051594603863600,1.688863525390625,0.04600000008940697,0.004000000189989805,0.003000000026077032
1664051594613756700,1.698756591796875,0.04600000008940697,0.004000000189989805,0.003000000026077032
1664051594623649500,1.7086494140625,0.032999999821186066,-0.008999999612569809,0.003000000026077032
1664051594633542700,1.718542724609375,0.032999999821186066,-0.00800000037997961,0.003000000026077032
1664051594643435500,1.728435546875,0.05999999865889549,0.004999999888241291,0.003000000026077032
1664051594653328400,1.738328369140625,0.032999999821186066,0.004000000189989805,-0.008999999612569809
1664051594663221200,1.74822119140625,0.04600000008940697,0.017999999225139618,0.004000000189989805
1664051594673114000,1.758114013671875,0.04600000008940697,-0.019999999552965164,0.004000000189989805
1664051594683007200,1.76800732421875,0.05999999865889549,0.006000000052154064,0.004000000189989805
1664051594692900000,1.777900146484375,0.05999999865889549,0.006000000052154064,0.003000000026077032
1664051594702793200,1.787793212890625,0.05999999865889549,0.006000000052154064,0.004000000189989805
1664051594712686000,1.79768603515625,0.07400000095367432,0.004999999888241291,0.003000000026077032
1664051594722579200,1.8075791015625,0.05999999865889549,0.004999999888241291,-0.008999999612569809
1664051594732472000,1.81747216796875,0.032999999821186066,0.004999999888241291,-0.00800000037997961
1664051594742365000,1.827364990234375,0.01899999938905239,0.01899999938905239,0.017999999225139618
1664051594752257800,1.8372578125,0.07400000095367432,0.004999999888241291,0.004000000189989805
1664051594762150700,1.847150634765625,0.07400000095367432,0.004999999888241291,0.004000000189989805
1664051594772043800,1.857043701171875,0.032999999821186066,0.004000000189989805,0.004000000189989805
1664051594781936600,1.8669365234375,0.032999999821186066,-0.00800000037997961,0.017999999225139618
1664051594791829500,1.87682958984375,0.032999999821186066,-0.00800000037997961,0.004000000189989805
1664051594801722600,1.88672265625,0.05999999865889549,0.01899999938905239,0.004000000189989805
1664051594811615700,1.89661572265625,0.04600000008940697,0.017000000923871994,-0.00800000037997961
1664051594821508600,1.906508544921875,0.04600000008940697,-0.023000000044703484,-0.00800000037997961
1664051594831401500,1.9164013671875,0.04600000008940697,-0.008999999612569809,0.004000000189989805
1664051594841294600,1.926294677734375,0.032999999821186066,-0.008999999612569809,0.004000000189989805
1664051594851187500,1.9361875,0.04600000008940697,0.01600000075995922,-0.00800000037997961
1664051594861080600,1.94608056640625,0.04600000008940697,0.029999999329447746,-0.00800000037997961
1664051594870973400,1.955973388671875,0.04600000008940697,0.003000000026077032,0.004000000189989805
1664051594880866300,1.9658662109375,0.04600000008940697,-0.009999999776482582,0.017999999225139618
1664051594890759200,1.97575927734375,0.01899999938905239,-0.008999999612569809,0.004000000189989805
1664051594900652300,1.98565234375,0.032999999821186066,0.017000000923871994,0.017999999225139618
1664051594910545200,1.995545166015625,0.05999999865889549,0.003000000026077032,0.004000000189989805
1664051594920438000,2.00543798828125,0.07400000095367432,-0.009999999776482582,-0.008999999612569809
1664051594930331100,2.0153310546875,0.032999999821186066,-0.008999999612569809,-0.00800000037997961
1664051594940224000,2.02522412109375,0.05999999865889549,0.004000000189989805,-0.02199999988079071
1664051594950116900,2.035116943359375,0.032999999821186066,0.01600000075995922,-0.007000000216066837
1664051594960010000,2.045010009765625,0.032999999821186066,0.01600000075995922,0.004999999888241291
1664051594969902800,2.05490283203125,0.032999999821186066,0.014999999664723873,0.017999999225139618
1664051594979795700,2.064795654296875,0.07400000095367432,0.0020000000949949026,0.004000000189989805
1664051594989688800,2.074688720703125,0.04600000008940697,0.0020000000949949026,-0.00800000037997961
1664051594999581700,2.084581787109375,0.04600000008940697,0.014999999664723873,-0.020999999716877937
1664051595009474800,2.094474853515625,0.032999999821186066,-0.023000000044703484,0.017000000923871994
1664051595019367700,2.10436767578125,0.032999999821186066,0.003000000026077032,0.004000000189989805
1664051595029260500,2.114260498046875,0.04600000008940697,-0.008999999612569809,0.003000000026077032
1664051595039153700,2.124153564453125,0.04600000008940697,0.004000000189989805,0.003000000026077032
1664051595049046300,2.13404638671875,0.05999999865889549,0.004000000189989805,-0.020999999716877937
1664051595058939400,2.143939453125,0.04600000008940697,0.004000000189989805,-0.020999999716877937
1664051595068832300,2.153832275390625,0.032999999821186066,0.004000000189989805,0.004999999888241291
1664051595078725000,2.16372509765625,0.04600000008940697,-0.008999999612569809,0.004999999888241291
1664051595088618200,2.1736181640625,0.032999999821186066,0.003000000026077032,0.004000000189989805
1664051595098511400,2.183511474609375,0.04600000008940697,0.003000000026077032,0.004000000189989805
1664051595108404200,2.193404296875,0.05999999865889549,0.003000000026077032,0.004000000189989805
1664051595118297000,2.203297119140625,0.032999999821186066,0.003000000026077032,0.004000000189989805
1664051595128190200,2.213190185546875,0.04600000008940697,0.014999999664723873,0.004000000189989805
1664051595138083000,2.2230830078125,0.05999999865889549,0.0020000000949949026,0.004000000189989805
1664051595147976000,2.232975830078125,0.032999999821186066,-0.009999999776482582,-0.00800000037997961
1664051595157868800,2.242868896484375,0.01899999938905239,-0.009999999776482582,0.004999999888241291
1664051595167762000,2.252761962890625,0.01899999938905239,0.014999999664723873,0.017000000923871994
1664051595177655000,2.262655029296875,0.01899999938905239,-0.010999999940395355,0.003000000026077032
1664051595187548000,2.2725478515625,0.04600000008940697,-0.009999999776482582,-0.020999999716877937
1664051595197440800,2.282440673828125,0.04600000008940697,0.0020000000949949026,0.004999999888241291
1664051595207334000,2.292333984375,0.05999999865889549,0.0020000000949949026,0.004999999888241291
1664051595217226800,2.302226806640625,0.04600000008940697,-0.009999999776482582,0.004999999888241291
1664051595227119600,2.31211962890625,0.07400000095367432,0.0020000000949949026,-0.007000000216066837
1664051595237012700,2.3220126953125,0.05999999865889549,-0.010999999940395355,-0.007000000216066837
1664051595246905900,2.33190576171875,0.04600000008940697,0.0020000000949949026,0.004999999888241291
1664051595256798700,2.341798828125,0.032999999821186066,0.0020000000949949026,0.004999999888241291
1664051595266691300,2.35169140625,0.04600000008940697,-0.009999999776482582,0.004999999888241291
1664051595276584400,2.36158447265625,0.04600000008940697,-0.009999999776482582,0.004999999888241291
1664051595286477600,2.3714775390625,0.05999999865889549,-0.02199999988079071,0.004999999888241291
1664051595296370400,2.381370361328125,0.04600000008940697,0.004999999888241291,-0.00800000037997961
1664051595306263300,2.39126318359375,0.01899999938905239,-0.007000000216066837,0.017000000923871994
1664051595316156400,2.401156494140625,0.04600000008940697,0.004999999888241291,0.017000000923871994
1664051595326049300,2.41104931640625,0.04600000008940697,-0.007000000216066837,0.003000000026077032
1664051595335942100,2.420942138671875,0.07400000095367432,0.006000000052154064,0.004000000189989805
1664051595345835000,2.4308349609375,0.032999999821186066,0.017999999225139618,0.003000000026077032
1664051595355728100,2.44072802734375,0.032999999821186066,0.004000000189989805,-0.008999999612569809
1664051595365621000,2.45062109375,0.032999999821186066,-0.00800000037997961,-0.020999999716877937
1664051595375514000,2.46051416015625,0.04600000008940697,0.004999999888241291,0.004999999888241291
1664051595385407000,2.470406982421875,0.07400000095367432,0.017000000923871994,0.017000000923871994
1664051595395300000,2.480300048828125,0.05999999865889549,0.003000000026077032,0.004000000189989805
1664051595405193000,2.49019287109375,0.032999999821186066,0.003000000026077032,0.004000000189989805
1664051595415085800,2.5000859375,0.032999999821186066,0.003000000026077032,-0.008999999612569809
1664051595424978700,2.509978759765625,0.04600000008940697,-0.008999999612569809,-0.00800000037997961
1664051595434871800,2.519871826171875,0.032999999821186066,0.004000000189989805,0.004999999888241291
1664051595444765000,2.529764892578125,0.032999999821186066,0.01600000075995922,0.004000000189989805
1664051595454657800,2.53965771484375,0.032999999821186066,0.01600000075995922,-0.00800000037997961
1664051595464550700,2.549550537109375,0.04600000008940697,-0.008999999612569809,0.004000000189989805
1664051595474443500,2.559443603515625,0.032999999821186066,0.004000000189989805,-0.008999999612569809
1664051595484336600,2.569336669921875,0.04600000008940697,0.003000000026077032,-0.00800000037997961
1664051595494229500,2.5792294921875,0.07400000095367432,0.003000000026077032,-0.00800000037997961
1664051595504122400,2.589122314453125,0.032999999821186066,-0.020999999716877937,0.004999999888241291
1664051595514015500,2.599015380859375,0.04600000008940697,0.01899999938905239,0.017999999225139618
1664051595523908600,2.60890869140625,0.032999999821186066,0.004999999888241291,0.004000000189989805
1664051595533801500,2.618801513671875,0.05999999865889549,-0.02199999988079071,0.004000000189989805
1664051595543694300,2.6286943359375,0.04600000008940697,0.017000000923871994,0.004000000189989805
1664051595553587500,2.63858740234375,0.032999999821186066,0.017000000923871994,0.004000000189989805
1664051595563480300,2.648480224609375,0.032999999821186066,0.01600000075995922,0.004000000189989805
1664051595573373200,2.658373291015625,0.05999999865889549,0.0020000000949949026,0.004000000189989805
1664051595583266300,2.668266357421875,0.07400000095367432,0.0020000000949949026,0.01600000075995922
1664051595593159200,2.6781591796875,0.04600000008940697,0.0020000000949949026,-0.023000000044703484
1664051595603052000,2.688052001953125,0.04600000008940697,0.0020000000949949026,-0.008999999612569809
1664051595612945200,2.697945068359375,0.04600000008940697,0.0020000000949949026,0.017000000923871994
1664051595622838300,2.70783837890625,0.05999999865889549,-0.023000000044703484,0.004000000189989805
1664051595632731000,2.71773095703125,0.04600000008940697,-0.008999999612569809,0.017000000923871994
1664051595642623700,2.727623779296875,0.01899999938905239,0.01600000075995922,-0.00800000037997961
1664051595652516900,2.737516845703125,0.04600000008940697,-0.009999999776482582,-0.00800000037997961
1664051595662410000,2.747409912109375,0.032999999821186066,-0.008999999612569809,-0.019999999552965164
1664051595672302800,2.757302734375,0.032999999821186066,0.017000000923871994,0.006000000052154064
1664051595682195700,2.76719580078125,0.04600000008940697,-0.008999999612569809,0.017999999225139618
1664051595692088800,2.7770888671875,0.032999999821186066,-0.008999999612569809,-0.00800000037997961
1664051595701982000,2.78698193359375,0.05999999865889549,0.01600000075995922,-0.007000000216066837
1664051595711874800,2.796874755859375,0.05999999865889549,0.003000000026077032,0.004999999888241291
1664051595721767700,2.806767578125,0.04600000008940697,0.0020000000949949026,-0.007000000216066837
1664051595731660800,2.816660888671875,0.04600000008940697,0.01600000075995922,0.019999999552965164
1664051595741553700,2.8265537109375,0.04600000008940697,0.014999999664723873,0.006000000052154064
1664051595751446500,2.836446533203125,0.032999999821186066,-0.02500000037252903,-0.007000000216066837
1664051595761339400,2.84633935546875,0.04600000008940697,0.0010000000474974513,0.004999999888241291
1664051595771232500,2.856232421875,0.05999999865889549,0.0010000000474974513,0.004999999888241291
1664051595781125400,2.86612548828125,0.04600000008940697,-0.023000000044703484,0.004999999888241291
1664051595791018200,2.876018310546875,0.032999999821186066,0.017000000923871994,0.017999999225139618
1664051595800911000,2.8859111328125,0.04600000008940697,0.01600000075995922,0.004000000189989805
1664051595810804500,2.895804443359375,0.04600000008940697,0.0020000000949949026,-0.02199999988079071
1664051595820697300,2.905697265625,0.04600000008940697,-0.009999999776482582,0.004000000189989805
1664051595830590200,2.915590087890625,0.032999999821186066,0.017000000923871994,0.004000000189989805
1664051595840483000,2.925483154296875,0.01899999938905239,0.003000000026077032,0.004000000189989805
1664051595850376000,2.9353759765625,0.04600000008940697,-0.024000000208616257,-0.00800000037997961
1664051595860269000,2.94526904296875,0.01899999938905239,0.0020000000949949026,0.004000000189989805
1664051595870162000,2.955161865234375,0.04600000008940697,0.0020000000949949026,0.004000000189989805
1664051595880055000,2.965054931640625,0.04600000008940697,0.02800000086426735,0.003000000026077032
1664051595889948200,2.9749482421875,0.04600000008940697,0,0.004000000189989805
1664051595899841000,2.984841064453125,0.05999999865889549,0,-0.00800000037997961
1664051595909734000,2.99473388671875,0.032999999821186066,0,-0.00800000037997961
1664051595919626800,3.004626708984375,0.032999999821186066,0.013000000268220901,0.004000000189989805
1664051595929519600,3.01451953125,0.07400000095367432,-0.013000000268220901,0.004000000189989805
1664051595939412700,3.024412841796875,0.04600000008940697,-0.012000000104308128,0.004000000189989805
1664051595949305600,3.0343056640625,0.04600000008940697,-0.026000000536441803,-0.008999999612569809
1664051595959198500,3.044198486328125,0.04600000008940697,0,-0.00800000037997961
1664051595969091600,3.054091552734375,0.04600000008940697,0,0.004999999888241291
1664051595978984400,3.063984375,0.04600000008940697,0,-0.007000000216066837
1664051595988877600,3.073877685546875,0.04600000008940697,-0.012000000104308128,-0.007000000216066837
1664051595998770400,3.0837705078125,0.07400000095367432,-0.010999999940395355,0.017999999225139618
1664051596008663600,3.09366357421875,0.04600000008940697,-0.010999999940395355,0.004000000189989805
1664051596018556400,3.103556396484375,0.05999999865889549,-0.009999999776482582,-0.00800000037997961
1664051596028449300,3.11344921875,0.05999999865889549,0.0020000000949949026,0.004999999888241291
1664051596038342100,3.123342041015625,0.04600000008940697,-0.02199999988079071,-0.007000000216066837
1664051596048235300,3.1332353515625,0.04600000008940697,0.004000000189989805,0.004999999888241291
1664051596058128100,3.143128173828125,0.04600000008940697,0.004000000189989805,-0.01899999938905239
1664051596068021000,3.15302099609375,0.01899999938905239,-0.008999999612569809,0.007000000216066837
1664051596077914000,3.1629140625,0.04600000008940697,-0.00800000037997961,0.007000000216066837
1664051596087807200,3.17280712890625,0.04600000008940697,0.004999999888241291,0.007000000216066837
1664051596097700000,3.1827001953125,0.04600000008940697,0.017000000923871994,-0.004999999888241291
1664051596107593000,3.192593017578125,0.04600000008940697,0.017000000923871994,0.03400000184774399
1664051596117485800,3.20248583984375,0.032999999821186066,0.01600000075995922,0.007000000216066837
1664051596127379000,3.21237890625,0.04600000008940697,0.01600000075995922,0.007000000216066837
1664051596137271800,3.222271728515625,0.04600000008940697,-0.009999999776482582,0.006000000052154064
1664051596147164700,3.23216455078125,0.032999999821186066,0.029999999329447746,0.006000000052154064
1664051596157057500,3.2420576171875,0.05999999865889549,0.014999999664723873,-0.006000000052154064
1664051596166950700,3.25195068359375,0.032999999821186066,0.0020000000949949026,-0.01899999938905239
1664051596176843500,3.261843505859375,0.04600000008940697,0.0020000000949949026,-0.004999999888241291
1664051596186736600,3.271736572265625,0.032999999821186066,-0.010999999940395355,-0.01899999938905239
1664051596196629500,3.28162939453125,0.04600000008940697,0.0010000000474974513,-0.017000000923871994
1664051596206522600,3.291522705078125,0.0729999989271164,0.0010000000474974513,0.008999999612569809
1664051596216415500,3.30141552734375,0.05999999865889549,0.0010000000474974513,0.020999999716877937
1664051596226308400,3.311308349609375,0.04600000008940697,0.0010000000474974513,-0.004999999888241291
1664051596236201200,3.321201171875,0.032999999821186066,0.0010000000474974513,0.007000000216066837
1664051596246094000,3.331093994140625,0.05999999865889549,-0.012000000104308128,0.019999999552965164
1664051596255987200,3.3409873046875,0.05999999865889549,0.0010000000474974513,-0.004999999888241291
1664051596265880300,3.35088037109375,0.04600000008940697,0.0010000000474974513,-0.01899999938905239
1664051596275773200,3.360773193359375,0.05999999865889549,0.0010000000474974513,0.007000000216066837
1664051596285666000,3.370666015625,0.04600000008940697,0.0010000000474974513,-0.006000000052154064
1664051596295559000,3.380558837890625,0.04600000008940697,-0.010999999940395355,0.007000000216066837
1664051596305452000,3.3904521484375,0.04600000008940697,0.0020000000949949026,0.007000000216066837
1664051596315345000,3.400344970703125,0.04600000008940697,0.0020000000949949026,-0.004999999888241291
1664051596325237800,3.41023779296875,0.032999999821186066,0.0020000000949949026,0.007000000216066837
1664051596335131000,3.420130859375,0.04600000008940697,0.0010000000474974513,0.007000000216066837
1664051596345023700,3.430023681640625,0.07400000095367432,0.0010000000474974513,-0.006000000052154064
1664051596354916600,3.43991650390625,0.05999999865889549,0.014000000432133675,0.01899999938905239
1664051596364809700,3.449809814453125,0.04600000008940697,0.014000000432133675,0.006000000052154064
1664051596374702600,3.45970263671875,0.032999999821186066,-0.010999999940395355,-0.006000000052154064
1664051596384595700,3.469595703125,0.04600000008940697,-0.010999999940395355,0.006000000052154064
1664051596394488600,3.479488525390625,0.04600000008940697,-0.009999999776482582,0.006000000052154064
1664051596404381700,3.489381591796875,0.032999999821186066,0.0020000000949949026,-0.007000000216066837
1664051596414274600,3.499274658203125,0.032999999821186066,0.014999999664723873,-0.01899999938905239
1664051596424167400,3.50916748046875,0.01899999938905239,0.0010000000474974513,-0.004999999888241291
1664051596434060300,3.519060302734375,0.032999999821186066,-0.010999999940395355,-0.004999999888241291
1664051596443953400,3.528953369140625,0.04600000008940697,0.0020000000949949026,-0.004999999888241291
1664051596453846300,3.53884619140625,0.04600000008940697,0.027000000700354576,-0.004000000189989805
1664051596463739400,3.548739501953125,0.07400000095367432,0,0.00800000037997961
1664051596473632300,3.55863232421875,0.04600000008940697,0,-0.004000000189989805
1664051596483525000,3.568525146484375,0.04600000008940697,0.014000000432133675,-0.004000000189989805
1664051596493418200,3.578418212890625,0.04600000008940697,0,-0.003000000026077032
1664051596503311400,3.588311279296875,0.05999999865889549,0.014000000432133675,0.009999999776482582
1664051596513204200,3.598204345703125,0.04600000008940697,0,0.008999999612569809
1664051596523096800,3.608096923828125,0.0729999989271164,-0.013000000268220901,-0.004000000189989805
1664051596532990000,3.617989990234375,0.032999999821186066,0.013000000268220901,-0.01600000075995922
1664051596542883000,3.627883056640625,0.032999999821186066,0,0.010999999940395355
1664051596552776000,3.63777587890625,0.0729999989271164,0,0.009999999776482582
1664051596562668800,3.647668701171875,0.05999999865889549,0.013000000268220901,-0.003000000026077032
1664051596572562000,3.65756201171875,0.04600000008940697,0,0.008999999612569809
1664051596582454800,3.667454833984375,0.032999999821186066,0,-0.003000000026077032
1664051596592347600,3.67734765625,0.032999999821186066,0,-0.003000000026077032
1664051596602240800,3.68724072265625,0.04600000008940697,-0.013000000268220901,0.009999999776482582
1664051596612133600,3.697133544921875,0.032999999821186066,0,0.008999999612569809
1664051596622026800,3.70702685546875,0.04600000008940697,0.013000000268220901,0.023000000044703484
1664051596631919600,3.716919677734375,0.04600000008940697,-0.012000000104308128,0.00800000037997961
1664051596641812500,3.7268125,0.04600000008940697,0,-0.004000000189989805
1664051596651705600,3.73670556640625,0.04600000008940697,-0.010999999940395355,-0.017000000923871994
1664051596661598500,3.746598388671875,0.04600000008940697,0.014999999664723873,0.008999999612569809
1664051596671491300,3.7564912109375,0.04600000008940697,0.014000000432133675,-0.003000000026077032
1664051596681384400,3.766384521484375,0.04600000008940697,-0.026000000536441803,-0.003000000026077032
1664051596691277600,3.776277587890625,0.04600000008940697,-0.012000000104308128,0.008999999612569809
1664051596701170400,3.78617041015625,0.032999999821186066,0.0010000000474974513,0.008999999612569809
1664051596711063300,3.796063232421875,0.04600000008940697,0.014000000432133675,-0.003000000026077032
1664051596720956200,3.8059560546875,0.05999999865889549,0,-0.003000000026077032
1664051596730849300,3.815849365234375,0.04600000008940697,0,-0.003000000026077032
1664051596740742100,3.8257421875,0.032999999821186066,0,-0.003000000026077032
1664051596750635000,3.835635009765625,0.04600000008940697,0.013000000268220901,0.008999999612569809
1664051596760528100,3.845528076171875,0.01899999938905239,0,0.008999999612569809
1664051596770421200,3.855421142578125,0.032999999821186066,0.012000000104308128,0.008999999612569809
1664051596780314000,3.865314208984375,0.05999999865889549,0.012000000104308128,-0.004000000189989805
1664051596790207000,3.87520703125,0.05999999865889549,-0.013000000268220901,0.00800000037997961
1664051596800100000,3.88510009765625,0.05999999865889549,0,0.00800000037997961
1664051596809993000,3.894992919921875,0.04600000008940697,0,-0.017000000923871994
1664051596819885800,3.9048857421875,0.0729999989271164,0.013000000268220901,-0.003000000026077032
1664051596829779000,3.914779052734375,0.032999999821186066,0.012000000104308128,0.008999999612569809
1664051596839671800,3.924671875,0.04600000008940697,0.012000000104308128,0.008999999612569809
1664051596849564700,3.934564697265625,0.032999999821186066,0,0.00800000037997961
1664051596859457800,3.944457763671875,0.032999999821186066,-0.0010000000474974513,0.00800000037997961
1664051596869350700,3.9543505859375,0.04600000008940697,-0.013000000268220901,-0.004000000189989805
1664051596879243500,3.964243408203125,0.05999999865889549,0,-0.004000000189989805
1664051596889136600,3.97413671875,0.05999999865889549,0,0.00800000037997961
1664051596899029500,3.984029541015625,0.032999999821186066,-0.013000000268220901,0.00800000037997961
1664051596908922400,3.99392236328125,0.04600000008940697,0,0.019999999552965164
1664051596918815500,4.0038154296875,0.032999999821186066,0,0.007000000216066837
1664051596928708400,4.013708251953125,0.07400000095367432,0,-0.004999999888241291
1664051596938601200,4.023601318359375,0.032999999821186066,0,-0.004999999888241291
1664051596948494300,4.033494384765625,0.032999999821186066,-0.012000000104308128,-0.004999999888241291
1664051596958387500,4.043387451171875,0.032999999821186066,0.014999999664723873,0.00800000037997961
1664051596968280300,4.0532802734375,0.05999999865889549,0.0010000000474974513,-0.004000000189989805
1664051596978173400,4.06317333984375,0.08699999749660492,-0.012000000104308128,-0.004000000189989805
1664051596988066300,4.07306640625,0.032999999821186066,0.0010000000474974513,0.019999999552965164
1664051596997959200,4.082959228515625,0.032999999821186066,0.0010000000474974513,0.007000000216066837
1664051597007852000,4.09285205078125,0.032999999821186066,-0.024000000208616257,-0.004999999888241291
1664051597017745200,4.1027451171875,0.032999999821186066,-0.009999999776482582,-0.004999999888241291
1664051597027638000,4.112637939453125,0.032999999821186066,-0.008999999612569809,-0.004999999888241291
1664051597037531000,4.12253076171875,0.032999999821186066,0.004000000189989805,0.00800000037997961
1664051597047424000,4.132424072265625,0.05999999865889549,-0.00800000037997961,0.007000000216066837
1664051597057316900,4.14231689453125,0.05999999865889549,0.004000000189989805,0.007000000216066837
1664051597067210000,4.1522099609375,0.04600000008940697,0.004000000189989805,-0.004999999888241291
1664051597077102800,4.162102783203125,0.032999999821186066,-0.00800000037997961,-0.01899999938905239
1664051597086995700,4.17199560546875,0.04600000008940697,0.004000000189989805,0.007000000216066837
1664051597096888600,4.181888671875,0.07400000095367432,0.017000000923871994,0.007000000216066837
1664051597106782000,4.191781982421875,0.04600000008940697,-0.00800000037997961,-0.004999999888241291
1664051597116674800,4.2016748046875,0.05999999865889549,0.004000000189989805,0.00800000037997961
1664051597126567700,4.211567626953125,0.04600000008940697,0.004000000189989805,0.007000000216066837
1664051597136460500,4.22146044921875,0.04600000008940697,0.004000000189989805,0.007000000216066837
1664051597146353700,4.231353759765625,0.05999999865889549,0.004000000189989805,0.007000000216066837
1664051597156246500,4.24124658203125,0.04600000008940697,0.004000000189989805,-0.006000000052154064
1664051597166139400,4.251139404296875,0.04600000008940697,-0.00800000037997961,-0.004999999888241291
1664051597176032300,4.2610322265625,0.04600000008940697,0.004999999888241291,0.007000000216066837
1664051597185925000,4.270925048828125,0.04600000008940697,-0.007000000216066837,0.019999999552965164
1664051597195818200,4.280818359375,0.04600000008940697,0.01899999938905239,0.006000000052154064
1664051597205711000,4.290711181640625,0.04600000008940697,0.004999999888241291,0.006000000052154064
1664051597215604000,4.30060400390625,0.032999999821186066,0.004999999888241291,0.006000000052154064
1664051597225497000,4.3104970703125,0.04600000008940697,0.017000000923871994,0.004999999888241291
1664051597235390200,4.32039013671875,0.05999999865889549,0.017000000923871994,0.01899999938905239
1664051597245283000,4.330282958984375,0.04600000008940697,0.003000000026077032,0.017999999225139618
1664051597255176000,4.340176025390625,0.05999999865889549,0.003000000026077032,0.004000000189989805
1664051597265068800,4.35006884765625,0.05999999865889549,0.003000000026077032,0.004000000189989805
1664051597274962000,4.3599619140625,0.04600000008940697,0.017000000923871994,0.004000000189989805
1664051597284854800,4.369854736328125,0.05999999865889549,0.003000000026077032,0.004000000189989805
1664051597294747600,4.37974755859375,0.04600000008940697,-0.009999999776482582,-0.008999999612569809
1664051597304640500,4.389640625,0.032999999821186066,0.003000000026077032,-0.020999999716877937
1664051597314533400,4.399533447265625,0.032999999821186066,0.003000000026077032,-0.007000000216066837
1664051597324426800,4.4094267578125,0.05999999865889549,0.003000000026077032,-0.01899999938905239
1664051597334319600,4.419319580078125,0.04600000008940697,0.003000000026077032,0.007000000216066837
1664051597344212500,4.42921240234375,0.032999999821186066,0.0020000000949949026,-0.004999999888241291
1664051597354105600,4.439105712890625,0.04600000008940697,0.0020000000949949026,0.00800000037997961
1664051597363998500,4.44899853515625,0.04600000008940697,-0.009999999776482582,0.00800000037997961
1664051597373891600,4.4588916015625,0.04600000008940697,0.003000000026077032,0.00800000037997961
1664051597383784400,4.468784423828125,0.05999999865889549,0.003000000026077032,0.007000000216066837
1664051597393677600,4.478677490234375,0.04600000008940697,0.003000000026077032,0.007000000216066837
1664051597403570400,4.4885703125,0.01899999938905239,0.0020000000949949026,-0.004999999888241291
1664051597413463300,4.49846337890625,0.032999999821186066,-0.009999999776482582,-0.004999999888241291
1664051597423356200,4.508356201171875,0.032999999821186066,-0.008999999612569809,0.019999999552965164
1664051597433249300,4.518249267578125,0.01899999938905239,0.003000000026077032,-0.006000000052154064
1664051597443142100,4.52814208984375,0.07400000095367432,0.003000000026077032,-0.006000000052154064
1664051597453035000,4.538034912109375,0.032999999821186066,0.017000000923871994,0.007000000216066837
1664051597462928400,4.547928466796875,0.032999999821186066,0.003000000026077032,0.006000000052154064
1664051597472821000,4.557821044921875,0.032999999821186066,0.003000000026077032,0.006000000052154064
1664051597482713900,4.5677138671875,0.032999999821186066,0.014999999664723873,-0.006000000052154064
1664051597492607000,4.57760693359375,0.07400000095367432,0.014999999664723873,-0.006000000052154064
1664051597502499800,4.587499755859375,0.04600000008940697,0.0010000000474974513,0.006000000052154064
1664051597512393000,4.59739306640625,0.04600000008940697,0.0010000000474974513,0.007000000216066837
1664051597522285800,4.607285888671875,0.04600000008940697,0.014000000432133675,0.006000000052154064
1664051597532178700,4.6171787109375,0.04600000008940697,-0.012000000104308128,-0.019999999552965164
1664051597542071800,4.62707177734375,0.07400000095367432,0,0.006000000052154064
1664051597551964700,4.636964599609375,0.032999999821186066,-0.012000000104308128,0.006000000052154064
1664051597561857800,4.64685791015625,0.04600000008940697,-0.012000000104308128,-0.006000000052154064
1664051597571750700,4.656750732421875,0.04600000008940697,0.0010000000474974513,-0.006000000052154064
1664051597581643800,4.666643798828125,0.05999999865889549,0.0010000000474974513,0.006000000052154064
1664051597591536600,4.67653662109375,0.04600000008940697,-0.010999999940395355,0.006000000052154064
1664051597601429500,4.686429443359375,0.04600000008940697,0.0010000000474974513,-0.006000000052154064
1664051597611322600,4.696322509765625,0.032999999821186066,0.014999999664723873,-0.019999999552965164
1664051597621215500,4.706215576171875,0.04600000008940697,0.0010000000474974513,-0.004999999888241291
1664051597631108600,4.716108642578125,0.04600000008940697,0.0010000000474974513,0.007000000216066837
1664051597641001500,4.72600146484375,0.05999999865889549,0.0010000000474974513,0.007000000216066837
1664051597650894600,4.73589453125,0.04600000008940697,0.02800000086426735,-0.006000000052154064
1664051597660787500,4.745787353515625,0.032999999821186066,-0.010999999940395355,-0.004999999888241291
1664051597670680600,4.7556806640625,0.032999999821186066,-0.024000000208616257,0.007000000216066837
1664051597680573400,4.765573486328125,0.05999999865889549,0.0020000000949949026,0.007000000216066837
1664051597690466300,4.77546630859375,0.04600000008940697,0.014999999664723873,0.007000000216066837
1664051597700359200,4.785359130859375,0.04600000008940697,0.014000000432133675,-0.004999999888241291
1664051597710252300,4.795252197265625,0.07400000095367432,0.014000000432133675,0.007000000216066837
1664051597720145200,4.805145263671875,0.05999999865889549,0,0.007000000216066837
1664051597730038300,4.815038330078125,0.04600000008940697,-0.012000000104308128,-0.006000000052154064
1664051597739931100,4.82493115234375,0.04600000008940697,-0.010999999940395355,0.007000000216066837
1664051597749824300,4.83482421875,0.04600000008940697,0.014999999664723873,0.019999999552965164
1664051597759717000,4.844717041015625,0.05999999865889549,0.014000000432133675,0.01899999938905239
1664051597769610000,4.85460986328125,0.04600000008940697,-0.012000000104308128,-0.00800000037997961
1664051597779502800,4.8645029296875,0.05999999865889549,-0.010999999940395355,-0.019999999552965164
1664051597789396000,4.87439599609375,0.04600000008940697,0.0010000000474974513,-0.006000000052154064
1664051597799288800,4.884288818359375,0.05999999865889549,0.0010000000474974513,0.006000000052154064
1664051597809182000,4.894181884765625,0.04600000008940697,0.0010000000474974513,-0.019999999552965164
1664051597819075000,4.904074951171875,0.04600000008940697,0.0010000000474974513,0.006000000052154064
1664051597828968000,4.913968017578125,0.032999999821186066,0.014999999664723873,-0.006000000052154064
1664051597838860800,4.92386083984375,0.032999999821186066,0.0010000000474974513,-0.03099999949336052
1664051597848754000,4.93375390625,0.04600000008940697,0.014999999664723873,-0.017000000923871994
1664051597858646500,4.943646484375,0.04600000008940697,0.0010000000474974513,-0.004000000189989805
1664051597868539600,4.95353955078125,0.01899999938905239,0.0010000000474974513,-0.004000000189989805
1664051597878432500,4.9634326171875,0.04600000008940697,-0.010999999940395355,-0.01600000075995922
1664051597888325600,4.97332568359375,0.04600000008940697,-0.024000000208616257,-0.0020000000949949026
1664051597898218500,4.983218505859375,0.05999999865889549,0.014000000432133675,-0.0020000000949949026
1664051597908111600,4.993111572265625,0.0729999989271164,0.0010000000474974513,-0.0020000000949949026
1664051597918004500,5.00300439453125,0.04600000008940697,0.013000000268220901,-0.0020000000949949026
1664051597927897600,5.012897705078125,0.032999999821186066,0.013000000268220901,0.010999999940395355
1664051597937790500,5.02279052734375,0.032999999821186066,0,0.009999999776482582
1664051597947683300,5.032683349609375,0.05999999865889549,0,-0.0020000000949949026
1664051597957576200,5.042576171875,0.04600000008940697,0,0.009999999776482582
1664051597967469300,5.05246923828125,0.032999999821186066,0.014000000432133675,-0.003000000026077032
1664051597977362200,5.062362060546875,0.05999999865889549,0,0.008999999612569809
1664051597987255300,5.07225537109375,0.032999999821186066,0.014000000432133675,0.008999999612569809
1664051597997148200,5.082148193359375,0.032999999821186066,0,-0.01600000075995922
1664051598007041000,5.092041015625,0.04600000008940697,-0.013000000268220901,-0.0020000000949949026
1664051598016934000,5.101933837890625,0.04600000008940697,0,0.009999999776482582
1664051598026827000,5.111826904296875,0.05999999865889549,-0.013000000268220901,0.009999999776482582
1664051598036719900,5.121719970703125,0.04600000008940697,-0.012000000104308128,-0.003000000026077032
1664051598046613000,5.131613037109375,0.05999999865889549,-0.012000000104308128,0.009999999776482582
1664051598056505900,5.141505859375,0.05999999865889549,0.0010000000474974513,-0.0020000000949949026
1664051598066398700,5.151398681640625,0.04600000008940697,-0.012000000104308128,-0.0020000000949949026
1664051598076291600,5.16129150390625,0.0729999989271164,0.0010000000474974513,-0.0020000000949949026
1664051598086184700,5.171184814453125,0.05999999865889549,0.014000000432133675,-0.014999999664723873
1664051598096077600,5.18107763671875,0.04600000008940697,0.0010000000474974513,-0.0020000000949949026
1664051598105970700,5.190970703125,0.04600000008940697,0.0010000000474974513,0.02500000037252903
1664051598115863600,5.200863525390625,0.0729999989271164,0.0010000000474974513,0.009999999776482582
1664051598125756400,5.21075634765625,0.05999999865889549,0.0010000000474974513,-0.0020000000949949026
1664051598135649500,5.2206494140625,0.04600000008940697,-0.010999999940395355,-0.014999999664723873
1664051598145542100,5.230542236328125,0.04600000008940697,-0.010999999940395355,-0.0010000000474974513
1664051598155435300,5.240435302734375,0.04600000008940697,0.014000000432133675,-0.014000000432133675
1664051598165328400,5.250328369140625,0.04600000008940697,-0.012000000104308128,0
1664051598175221200,5.26022119140625,0.05999999865889549,-0.010999999940395355,0
1664051598185114000,5.270114013671875,0.04600000008940697,0.0020000000949949026,0
1664051598195007000,5.280007080078125,0.04600000008940697,0.0010000000474974513,0.012000000104308128
1664051598204900000,5.289900146484375,0.01899999938905239,0.0020000000949949026,0
1664051598214793000,5.29979296875,0.0729999989271164,-0.009999999776482582,0.010999999940395355
1664051598224686000,5.30968603515625,0.05999999865889549,0.01600000075995922,-0.0010000000474974513
1664051598234579000,5.319578857421875,0.04600000008940697,-0.009999999776482582,-0.0010000000474974513
1664051598244471800,5.329471923828125,0.032999999821186066,0.003000000026077032,0.02500000037252903
1664051598254365000,5.339364990234375,0.04600000008940697,-0.008999999612569809,0.010999999940395355
1664051598264257800,5.3492578125,0.04600000008940697,-0.02199999988079071,-0.0020000000949949026
1664051598274150700,5.359150634765625,0.05999999865889549,-0.00800000037997961,-0.0020000000949949026
1664051598284043500,5.36904345703125,0.0729999989271164,0.004999999888241291,-0.014999999664723873
1664051598293936600,5.3789365234375,0.04600000008940697,-0.007000000216066837,0.009999999776482582
1664051598303829500,5.38882958984375,0.032999999821186066,0.01899999938905239,0.024000000208616257
1664051598313722600,5.39872265625,0.032999999821186066,0.029999999329447746,-0.0020000000949949026
1664051598323615500,5.408615478515625,0.04600000008940697,0.017000000923871994,0.024000000208616257
1664051598333508600,5.418508544921875,0.0729999989271164,0.014999999664723873,0.023000000044703484
1664051598343401500,5.4284013671875,0.08699999749660492,-0.010999999940395355,0.008999999612569809
1664051598353294600,5.438294677734375,0.032999999821186066,0.0020000000949949026,0.03400000184774399
1664051598363187500,5.4481875,0.04600000008940697,0.014999999664723873,0.019999999552965164
1664051598373080300,5.458080322265625,0.04600000008940697,0.0010000000474974513,-0.006000000052154064
1664051598382973200,5.46797314453125,0.01899999938905239,0.0010000000474974513,0.020999999716877937
1664051598392866600,5.477866455078125,0.05999999865889549,0.0010000000474974513,0.007000000216066837
1664051598402759400,5.487759521484375,0.05999999865889549,0.0010000000474974513,-0.006000000052154064
1664051598412652300,5.49765234375,0.04600000008940697,0.0010000000474974513,-0.017999999225139618
1664051598422545200,5.507545166015625,0.04600000008940697,-0.010999999940395355,0.00800000037997961
1664051598432438300,5.517438232421875,0.04600000008940697,0.0010000000474974513,0.00800000037997961
1664051598442331100,5.5273310546875,0.04600000008940697,0.014999999664723873,0.007000000216066837
1664051598452224000,5.53722412109375,0.05999999865889549,0.014000000432133675,-0.004999999888241291
1664051598462116900,5.547116943359375,0.04600000008940697,0,0.00800000037997961
1664051598472010000,5.557010009765625,0.04600000008940697,0,-0.004000000189989805
1664051598481902800,5.56690283203125,0.01899999938905239,0,-0.004000000189989805
1664051598491796000,5.5767958984375,0.04600000008940697,0.013000000268220901,0.020999999716877937
1664051598501688800,5.586688720703125,0.05999999865889549,0.013000000268220901,0.020999999716877937
1664051598511582000,5.59658203125,0.07400000095367432,-0.012000000104308128,0.007000000216066837
1664051598521474800,5.606474853515625,0.04600000008940697,0,0.007000000216066837
1664051598531367700,5.61636767578125,0.032999999821186066,0,-0.004999999888241291
1664051598541260800,5.6262607421875,0.032999999821186066,0.014000000432133675,-0.004999999888241291
1664051598551153700,5.636153564453125,0.05999999865889549,0,0.007000000216066837
1664051598561046500,5.646046630859375,0.07400000095367432,-0.012000000104308128,-0.006000000052154064
1664051598570939400,5.655939453125,0.032999999821186066,-0.010999999940395355,0.006000000052154064
1664051598580832500,5.66583251953125,0.04600000008940697,0.014999999664723873,-0.006000000052154064
1664051598590725600,5.6757255859375,0.01899999938905239,0.014000000432133675,-0.006000000052154064
1664051598600618500,5.685618408203125,0.032999999821186066,0,0.007000000216066837
1664051598610511600,5.69551171875,0.05999999865889549,0,-0.004999999888241291
1664051598620404500,5.705404541015625,0.05999999865889549,-0.012000000104308128,-0.004999999888241291
1664051598630297600,5.715297607421875,0.01899999938905239,-0.010999999940395355,0.007000000216066837
1664051598640190500,5.7251904296875,0.05999999865889549,0.0010000000474974513,0.007000000216066837
1664051598650083300,5.735083251953125,0.05999999865889549,0.014000000432133675,-0.004999999888241291
1664051598659976200,5.74497607421875,0.05999999865889549,0.014000000432133675,0.020999999716877937
1664051598669869300,5.754869384765625,0.07400000095367432,0,0.007000000216066837
1664051598679762200,5.76476220703125,0.04600000008940697,0,-0.006000000052154064
1664051598689655000,5.774655029296875,0.032999999821186066,-0.024000000208616257,0.007000000216066837
1664051598699548200,5.784548095703125,0.04600000008940697,0.0020000000949949026,0.007000000216066837
1664051598709441000,5.79444091796875,0.05999999865889549,0.014999999664723873,0.006000000052154064
1664051598719334100,5.804334228515625,0.05999999865889549,-0.010999999940395355,-0.006000000052154064
1664051598729226800,5.814226806640625,0.04600000008940697,0.0010000000474974513,0.006000000052154064
1664051598739119900,5.824119873046875,0.04600000008940697,0.014999999664723873,0.006000000052154064
1664051598749012700,5.8340126953125,0.04600000008940697,0.014000000432133675,0.006000000052154064
1664051598758905600,5.843905517578125,0.04600000008940697,0.014000000432133675,-0.007000000216066837
1664051598768798700,5.853798828125,0.032999999821186066,0,-0.006000000052154064
1664051598778691800,5.86369189453125,0.04600000008940697,0.014000000432133675,-0.006000000052154064
1664051598788584700,5.873584716796875,0.04600000008940697,0,0.006000000052154064
1664051598798477800,5.883477783203125,0.032999999821186066,0.014000000432133675,0.006000000052154064
1664051598808370700,5.89337060546875,0.04600000008940697,0.02500000037252903,0.006000000052154064
1664051598818263800,5.903263916015625,0.04600000008940697,-0.0010000000474974513,0.006000000052154064
1664051598828156700,5.91315673828125,0.032999999821186066,-0.026000000536441803,0.004999999888241291
1664051598838049500,5.923049560546875,0.04600000008940697,-0.013000000268220901,0.006000000052154064
1664051598847942700,5.932942626953125,0.05999999865889549,-0.012000000104308128,-0.01899999938905239
1664051598857835500,5.94283544921875,0.032999999821186066,0.0010000000474974513,0.007000000216066837
1664051598867728400,5.952728271484375,0.04600000008940697,0.013000000268220901,0.007000000216066837
1664051598877621500,5.96262158203125,0.07400000095367432,0,0.007000000216066837
1664051598887514400,5.972514404296875,0.01899999938905239,-0.012000000104308128,-0.004999999888241291
1664051598897407500,5.982407470703125,0.004999999888241291,0.014999999664723873,-0.006000000052154064
1664051598907300400,5.99230029296875,0.032999999821186066,0.026000000536441803,-0.004999999888241291
1664051598917193200,6.002193115234375,0.07400000095367432,-0.014000000432133675,-0.004999999888241291
1664051598927086300,6.01208642578125,0.08699999749660492,0,-0.004999999888241291
1664051598936979200,6.021979248046875,0.08699999749660492,0,0.00800000037997961
1664051598946872000,6.0318720703125,0.032999999821186066,0.012000000104308128,-0.017000000923871994
1664051598956765200,6.04176513671875,-0.04800000041723251,-0.0010000000474974513,-0.017000000923871994
1664051598966658000,6.051657958984375,-0.007000000216066837,-0.0010000000474974513,-0.004000000189989805
1664051598976551000,6.061551025390625,0.08699999749660492,-0.014000000432133675,0.008999999612569809
1664051598986443800,6.07144384765625,0.12800000607967377,0,-0.004000000189989805
1664051598996337000,6.0813369140625,0.07400000095367432,-0.014000000432133675,-0.004000000189989805
1664051599006230000,6.09122998046875,0.004999999888241291,0,0.00800000037997961
1664051599016123000,6.101122802734375,-0.007000000216066837,0,0.02199999988079071
1664051599026015700,6.111015625,0.04600000008940697,-0.013000000268220901,-0.004000000189989805
1664051599035908600,6.12090869140625,0.07400000095367432,0,0.00800000037997961
1664051599045801500,6.130801513671875,0.10100000351667404,-0.012000000104308128,0.019999999552965164
1664051599055694600,6.140694580078125,0.01899999938905239,0.014999999664723873,-0.006000000052154064
1664051599065587700,6.150587646484375,-0.03400000184774399,0.014000000432133675,-0.019999999552965164
1664051599075480600,6.16048046875,0.006000000052154064,-0.02500000037252903,-0.00800000037997961
1664051599085373400,6.17037353515625,0.07400000095367432,-0.009999999776482582,0.0020000000949949026
1664051599095266600,6.1802666015625,0.08699999749660492,0.003000000026077032,0
1664051599105159400,6.190159423828125,0.04699999839067459,0.003000000026077032,0
1664051599115052300,6.20005224609375,0.006000000052154064,0.004000000189989805,0.009999999776482582
1664051599124945400,6.2099453125,0.07400000095367432,0.017000000923871994,0.020999999716877937
1664051599134838300,6.21983837890625,0.08799999952316284,0.003000000026077032,0.019999999552965164
1664051599144731100,6.229731201171875,0.032999999821186066,-0.00800000037997961,0.004999999888241291
1664051599154624000,6.2396240234375,0.07400000095367432,0.004000000189989805,-0.00800000037997961
1664051599164517400,6.249517333984375,0.04699999839067459,0.028999999165534973,0.004000000189989805
1664051599174410200,6.25941015625,0.04699999839067459,0.0430000014603138,0.004000000189989805
1664051599184303000,6.26930322265625,0.032999999821186066,0.0020000000949949026,0.01600000075995922
1664051599194196200,6.2791962890625,0.061000000685453415,-0.02500000037252903,0.003000000026077032
1664051599204089000,6.289089111328125,0.04699999839067459,-0.009999999776482582,0.003000000026077032
1664051599213982000,6.29898193359375,0.04699999839067459,-0.024000000208616257,-0.009999999776482582
1664051599223875000,6.308875,0.07400000095367432,-0.008999999612569809,0.014999999664723873
1664051599233768000,6.318767822265625,0.04699999839067459,0.003000000026077032,0.0010000000474974513
1664051599243661000,6.3286611328125,0.032999999821186066,-0.020999999716877937,0.0010000000474974513
1664051599253554000,6.338553955078125,0.032999999821186066,0.004999999888241291,0.014000000432133675
1664051599263446800,6.34844677734375,0.061000000685453415,-0.007000000216066837,0
1664051599273339600,6.358339599609375,0.10100000351667404,-0.019999999552965164,0
1664051599283232800,6.368232666015625,0.07400000095367432,-0.006000000052154064,-0.012000000104308128
1664051599293125600,6.378125732421875,-0.007000000216066837,0.007000000216066837,0.0010000000474974513
1664051599303018800,6.388018798828125,-0.019999999552965164,0.006000000052154064,0.014000000432133675
1664051599312912000,6.397911865234375,0.061000000685453415,0.006000000052154064,0
1664051599322804500,6.407804443359375,0.1289999932050705,0.006000000052154064,0
1664051599332697300,6.417697265625,0.061000000685453415,-0.020999999716877937,0.02800000086426735
1664051599342590500,6.427590576171875,0.019999999552965164,0.004999999888241291,0.0010000000474974513
1664051599352483300,6.4374833984375,0.019999999552965164,-0.00800000037997961,-0.012000000104308128
1664051599362376400,6.44737646484375,0.061000000685453415,0.004999999888241291,0.014000000432133675
1664051599372269300,6.457269287109375,0.07400000095367432,0.01899999938905239,0
1664051599382162200,6.467162109375,0.04699999839067459,-0.019999999552965164,0
1664051599392055000,6.477054931640625,0.019999999552965164,0.007000000216066837,0.013000000268220901
1664051599401948400,6.486948486328125,-0.019999999552965164,0.006000000052154064,0
1664051599411841300,6.49684130859375,0.08799999952316284,-0.006000000052154064,0.013000000268220901
1664051599421734100,6.506734130859375,0.08799999952316284,0.006000000052154064,0
1664051599431627000,6.516626953125,0.07400000095367432,0.006000000052154064,0.013000000268220901
1664051599441519900,6.526519775390625,0.032999999821186066,-0.006000000052154064,0
1664051599451413000,6.5364130859375,0.032999999821186066,-0.006000000052154064,0.014000000432133675
1664051599461305900,6.546305908203125,0.032999999821186066,0.006000000052154064,0.013000000268220901
1664051599471198700,6.55619873046875,0.019999999552965164,0.006000000052154064,0
1664051599481092000,6.566092041015625,0.04699999839067459,0.004999999888241291,0.012000000104308128
1664051599490985000,6.57598486328125,0.032999999821186066,0.004999999888241291,0.026000000536441803
1664051599500877800,6.5858779296875,0.032999999821186066,-0.006000000052154064,0.010999999940395355
1664051599510770700,6.595770751953125,0.019999999552965164,0.007000000216066837,0.008999999612569809
1664051599520663800,6.605663818359375,0.03400000184774399,0.019999999552965164,-0.006000000052154064
1664051599530556700,6.615556640625,0.006000000052154064,0.00800000037997961,-0.009999999776482582
1664051599540449500,6.625449462890625,0.04699999839067459,-0.014999999664723873,0.010999999940395355
1664051599550342700,6.6353427734375,0.04800000041723251,-0.014000000432133675,0.007000000216066837
1664051599560235500,6.645235595703125,0.08900000154972076,-0.012000000104308128,0.017000000923871994
1664051599570128600,6.655128662109375,0.11599999666213989,-0.010999999940395355,0.01600000075995922
1664051599580021500,6.665021484375,0.03400000184774399,0.0020000000949949026,-0.010999999940395355
1664051599589914600,6.67491455078125,0.04800000041723251,-0.009999999776482582,0
1664051599599807500,6.684807373046875,0.007000000216066837,0.003000000026077032,-0.039000000804662704
1664051599609700400,6.694700439453125,0.020999999716877937,0.017999999225139618,-0.01600000075995922
1664051599619593200,6.70459326171875,-0.004999999888241291,0.007000000216066837,-0.00800000037997961
1664051599629486300,6.714486328125,-0.004999999888241291,0.024000000208616257,-0.017000000923871994
1664051599639379200,6.724379150390625,-0.004999999888241291,0.026000000536441803,-0.013000000268220901
1664051599649272300,6.734272216796875,0.035999998450279236,0.04399999976158142,-0.012000000104308128
1664051599659165200,6.744165283203125,0.11800000071525574,0.07000000029802322,0.014999999664723873
1664051599669058300,6.754058349609375,0.22699999809265137,0.2630000114440918,0.11999999731779099
1664051599678951200,6.763951171875,-0.04399999976158142,0.2709999978542328,0.019999999552965164
1664051599688844000,6.773843994140625,0.023000000044703484,0.04100000113248825,-0.10700000077486038
1664051599698737000,6.78373681640625,0.03700000047683716,-0.09700000286102295,-0.0689999982714653
1664051599708629800,6.793629638671875,0.03700000047683716,-0.12099999934434891,-0.00800000037997961
1664051599718523000,6.80352294921875,-0.028999999165534973,-0.0689999982714653,0.006000000052154064
1664051599728415700,6.813415771484375,-0.0010000000474974513,0.1420000046491623,-0.06199999898672104
1664051599738308900,6.823308837890625,0.02500000037252903,0.39500001072883606,-0.11400000005960464
1664051599748202000,6.833201904296875,0.013000000268220901,0.6259999871253967,-0.17800000309944153
1664051599758094800,6.8430947265625,0.05400000140070915,0.6850000023841858,-0.3540000021457672
1664051599767987700,6.85298779296875,0.08299999684095383,0.7839999794960022,-0.4519999921321869
1664051599777880800,6.862880859375,0.0820000022649765,0.6169999837875366,-0.5230000019073486
1664051599787773700,6.872773681640625,-0.009999999776482582,0.2759999930858612,-0.3330000042915344
1664051599797666600,6.88266650390625,-0.06300000101327896,-0.01899999938905239,0.0020000000949949026
1664051599807559400,6.892559326171875,0.18299999833106995,-0.29100000858306885,0.18700000643730164
1664051599817452300,6.902452392578125,0.2809999883174896,-0.4970000088214874,0.23199999332427979
1664051599827345400,6.912345458984375,0.11999999731779099,-0.671999990940094,0.2639999985694885
1664051599837238500,6.922238525390625,0.16500000655651093,-0.7239999771118164,0.289000004529953
1664051599847131400,6.93213134765625,0.04500000178813934,-0.8600000143051147,0.421999990940094
1664051599857024300,6.942024169921875,-0.006000000052154064,-0.9419999718666077,0.4880000054836273
1664051599866917400,6.95191748046875,0.06400000303983688,-0.9419999718666077,0.3919999897480011
1664051599876810200,6.961810302734375,0.06700000166893005,-0.3050000071525574,0.07000000029802322
1664051599886703000,6.971703125,0.08399999886751175,0.14499999582767487,-0.1509999930858612
1664051599896596500,6.981596435546875,0.19599999487400055,-0.026000000536441803,-0.08100000023841858
1664051599906489300,6.9914892578125,0.1860000044107437,0.019999999552965164,-0.019999999552965164
1664051599916382000,7.0013818359375,0.02500000037252903,0.23000000417232513,-0.14300000667572021
1664051599926275000,7.011275146484375,0.2199999988079071,0.4410000145435333,-0.21699999272823334
1664051599936168000,7.02116796875,-0.3499999940395355,0.5019999742507935,-0.2409999966621399
1664051599946061000,7.03106103515625,0.22100000083446503,0.33799999952316284,0.06800000369548798
1664051599955954000,7.040953857421875,-0.3089999854564667,0.23399999737739563,0.07000000029802322
1664051599965846800,7.0508466796875,-0.17499999701976776,0.03700000047683716,0.11999999731779099
1664051599975740000,7.060739990234375,-0.09399999678134918,-0.2879999876022339,0.21299999952316284
1664051599985632800,7.0706328125,0.07999999821186066,-0.5550000071525574,0.3319999873638153
1664051599995525600,7.080525634765625,0.27300000190734863,-0.6340000033378601,0.3230000138282776
1664051600005418500,7.09041845703125,0.3140000104904175,-0.6069999933242798,0.1979999989271164
1664051600015312000,7.100311767578125,0.3179999887943268,-0.37400001287460327,0.10700000077486038
1664051600025204700,7.110204833984375,0.21199999749660492,-0.12800000607967377,-0.0010000000474974513
1664051600035097600,7.12009765625,0.06599999964237213,-0.01899999938905239,-0.03099999949336052
1664051600044990700,7.12999072265625,0.01600000075995922,0.05700000002980232,-0.03400000184774399
1664051600054883600,7.139883544921875,0.017999999225139618,0.17299999296665192,-0.08399999886751175
1664051600064776400,7.1497763671875,0.03500000014901161,0.29899999499320984,-0.13699999451637268
1664051600074669600,7.159669677734375,-0.004000000189989805,0.3160000145435333,-0.13600000739097595
1664051600084562400,7.1695625,0.024000000208616257,0.2879999876022339,-0.14399999380111694
1664051600094455600,7.17945556640625,0.10700000077486038,0.2290000021457672,-0.11699999868869781
1664051600104348400,7.189348388671875,0.20600000023841858,0.16300000250339508,-0.09000000357627869
1664051600114241300,7.1992412109375,0.3199999928474426,-0.04500000178813934,-0.054999999701976776
1664051600124134100,7.209134033203125,0.40799999237060547,-0.1289999932050705,-0.024000000208616257
1664051600134027300,7.21902734375,0.37700000405311584,-0.09200000017881393,-0.028999999165534973
1664051600143920000,7.228920166015625,0.26600000262260437,-0.05999999865889549,-0.020999999716877937
1664051600153813200,7.238813232421875,0.11500000208616257,-0.009999999776482582,-0.004000000189989805
1664051600163706000,7.2487060546875,0.07500000298023224,0.013000000268220901,0.012000000104308128
1664051600173599000,7.258598876953125,0.14399999380111694,0.06400000303983688,0.013000000268220901
1664051600183492000,7.2684921875,0.1599999964237213,0.12700000405311584,-0.03700000047683716
1664051600193385000,7.278385009765625,0.24300000071525574,0.2370000034570694,-0.10700000077486038
1664051600203277800,7.28827783203125,0.3019999861717224,0.4429999887943268,-0.1850000023841858
1664051600213170700,7.298170654296875,0.24699999392032623,0.574999988079071,-0.22699999809265137
1664051600223063800,7.308063720703125,0.061000000685453415,0.5109999775886536,-0.14100000262260437
1664051600232956700,7.317956787109375,-0.14000000059604645,0.2840000092983246,0.008999999612569809
1664051600242849500,7.327849609375,-0.3190000057220459,0.18400000035762787,0.07800000160932541
1664051600252742700,7.33774267578125,-0.4580000042915344,0.1589999943971634,0.11400000005960464
1664051600262635800,7.3476357421875,-0.4699999988079071,0.11299999803304672,0.19200000166893005
1664051600272528600,7.357528564453125,-0.35899999737739563,0.0430000014603138,0.1679999977350235
1664051600282421500,7.36742138671875,-0.3230000138282776,-0.039000000804662704,0.12600000202655792
1664051600292314400,7.377314453125,-0.13500000536441803,-0.11599999666213989,0.12999999523162842
1664051600302207200,7.387207275390625,0.07800000160932541,-0.2240000069141388,0.2029999941587448
1664051600312100400,7.397100341796875,0.2029999941587448,-0.20800000429153442,0.20100000500679016
1664051600321993200,7.4069931640625,0.27399998903274536,-0.10400000214576721,0.16500000655651093
1664051600331886300,7.41688623046875,0.22599999606609344,0.057999998331069946,0.11299999803304672
1664051600341779200,7.426779296875,0.08500000089406967,0.2680000066757202,0.02800000086426735
1664051600351672300,7.43667236328125,-0.18199999630451202,0.3970000147819519,0.06300000101327896
1664051600361565200,7.446565185546875,-0.367000013589859,0.49799999594688416,0.12300000339746475
1664051600371458000,7.4564580078125,-0.32899999618530273,0.5410000085830688,0.07800000160932541
1664051600381351000,7.466350830078125,-0.1770000010728836,0.5239999890327454,0.027000000700354576
1664051600391244000,7.476244140625,0.21899999678134918,0.15399999916553497,0.03700000047683716
1664051600401137000,7.486136962890625,0.20999999344348907,-0.24300000071525574,0.1979999989271164
1664051600411029800,7.49602978515625,0.5830000042915344,-0.5950000286102295,0.1420000046491623
1664051600420923000,7.5059228515625,0.5450000166893005,-0.7440000176429749,0.003000000026077032
1664051600430816000,7.51581591796875,0.19099999964237213,-0.7549999952316284,-0.23800000548362732
1664051600440708900,7.525708984375,-0.15000000596046448,-0.9160000085830688,-0.20100000500679016
1664051600450602000,7.53560205078125,-0.2750000059604645,-1.003999948501587,0.04800000041723251
1664051600460494800,7.545494873046875,-0.35899999737739563,-1.149999976158142,0.07999999821186066
1664051600470387700,7.5553876953125,-0.34700000286102295,-1.253000020980835,0.07500000298023224
1664051600480280600,7.565280517578125,-0.25200000405311584,-1.2699999809265137,0.041999999433755875
1664051600490174000,7.575174072265625,-0.1080000028014183,-1.0260000228881836,0.1340000033378601
1664051600500066800,7.58506689453125,-0.06300000101327896,-0.6209999918937683,0.18299999833106995
1664051600509959700,7.594959716796875,-0.1679999977350235,0.08100000023841858,0.006000000052154064
1664051600519852500,7.6048525390625,-0.25999999046325684,-0.0560000017285347,0.024000000208616257
1664051600529745400,7.614745361328125,-0.40400001406669617,-0.1899999976158142,0.06700000166893005
1664051600539638500,7.624638427734375,-0.5040000081062317,-0.1860000044107437,0.08799999952316284
1664051600549531400,7.634531494140625,-0.5389999747276306,0.019999999552965164,0.020999999716877937
1664051600559424300,7.64442431640625,-0.4180000126361847,0.44600000977516174,-0.0949999988079071
1664051600569317400,7.6543173828125,-0.14900000393390656,0.5680000185966492,-0.16699999570846558
1664051600579210200,7.664210205078125,0.008999999612569809,0.19900000095367432,-0.13500000536441803
1664051600589103000,7.67410302734375,0.21400000154972076,-0.32199999690055847,-0.0689999982714653
1664051600598996200,7.683996337890625,0.18799999356269836,-0.5849999785423279,-0.010999999940395355
1664051600608889300,7.693889404296875,0.14800000190734863,-0.6370000243186951,0.16899999976158142
1664051600618782200,7.7037822265625,0.25,-0.6850000023841858,0.29600000381469727
1664051600628675000,7.713675048828125,0.46299999952316284,0.06300000101327896,0.007000000216066837
1664051600638568200,7.723568115234375,0.531000018119812,0.21699999272823334,-0.11299999803304672
1664051600648461000,7.7334609375,0.3140000104904175,0.03999999910593033,-0.052000001072883606
1664051600658354000,7.74335400390625,0.05900000035762787,0.035999998450279236,-0.013000000268220901
1664051600668246800,7.753246826171875,-0.14100000262260437,-0.006000000052154064,-0.024000000208616257
1664051600678140000,7.763139892578125,-0.23399999737739563,-0.0820000022649765,0.014999999664723873
1664051600688033000,7.773032958984375,-0.27300000190734863,-0.12099999934434891,0.013000000268220901
1664051600697926000,7.78292578125,-0.4000000059604645,-0.12399999797344208,0.04699999839067459
1664051600707818800,7.79281884765625,-0.4309999942779541,-0.13199999928474426,0.05299999937415123
1664051600717712000,7.8027119140625,-0.4009999930858612,-0.15000000596046448,0.0430000014603138
1664051600727604700,7.812604736328125,-0.3580000102519989,-0.1340000033378601,0.04500000178813934
1664051600737497900,7.822497802734375,-0.27799999713897705,-0.12700000405311584,0.05000000074505806
1664051600747390700,7.832390625,-0.09099999815225601,-0.09700000286102295,0.004999999888241291
1664051600757283600,7.84228369140625,0.026000000536441803,-0.08900000154972076,-0.06300000101327896
1664051600767176700,7.8521767578125,-0.15700000524520874,-0.07000000029802322,-0.05400000140070915
1664051600777069600,7.862069580078125,-0.028999999165534973,-0.052000001072883606,-0.03799999877810478
1664051600786962400,7.87196240234375,0.14499999582767487,0.42800000309944153,-0.18400000035762787
1664051600796855600,7.88185546875,0.2150000035762787,0.8519999980926514,-0.41600000858306885
1664051600806748400,7.89174853515625,-0.01899999938905239,0.2150000035762787,-0.04399999976158142
1664051600816641300,7.901641357421875,-0.8090000152587891,-1.2319999933242798,0.7200000286102295
1664051600826534100,7.9115341796875,2.950000047683716,-2.503999948501587,0.45899999141693115
1664051600836427300,7.92142724609375,7.964000225067139,-0.718999981880188,-0.125
1664051600846320400,7.9313203125,-11.119999885559082,3.4739999771118164,0.04699999839067459
1664051600856213200,7.941213134765625,-2.6740000247955322,-0.546999990940094,-0.5720000267028809
1664051600866106000,7.951106201171875,7.734000205993652,-1.034999966621399,-0.17299999296665192
1664051600875999000,7.9609990234375,-0.640999972820282,-0.032999999821186066,0.6510000228881836
1664051600885892000,7.97089208984375,-2.755000114440918,0.19599999487400055,0.3269999921321869
1664051600895785000,7.980784912109375,1.3980000019073486,-0.12399999797344208,-0.21400000154972076
1664051600905677800,7.990677734375,0.4449999928474426,-0.032999999821186066,-0.22200000286102295
1664051600915571200,8.0005712890625,-0.1940000057220459,0.06599999964237213,0.14300000667572021
1664051600925464000,8.010464111328124,0.2809999883174896,-0.06700000166893005,0.04899999871850014
1664051600935357000,8.02035693359375,-0.6710000038146973,-0.05299999937415123,-0.05000000074505806
1664051600945249800,8.030249755859375,0.3630000054836273,-0.07000000029802322,0.11599999666213989
1664051600955143000,8.040142822265626,0.1860000044107437,-0.057999998331069946,0.02500000037252903
1664051600965035800,8.050035888671875,0.22699999809265137,-0.017999999225139618,-0.014000000432133675
1664051600974928600,8.0599287109375,-0.04500000178813934,-0.003000000026077032,-0.0020000000949949026
1664051600984821800,8.06982177734375,-0.2619999945163727,-0.0560000017285347,0.00800000037997961
1664051600994714600,8.079714599609375,0.1720000058412552,-0.057999998331069946,0.050999999046325684
1664051601004607500,8.089607421875,0.07699999958276749,-0.03200000151991844,0.026000000536441803
1664051601014500600,8.09950048828125,0.2540000081062317,-0.01899999938905239,0.027000000700354576
1664051601024393700,8.109393798828124,-0.12600000202655792,-0.03099999949336052,-0.0010000000474974513
1664051601034286600,8.11928662109375,0.023000000044703484,-0.057999998331069946,0.010999999940395355
1664051601044179500,8.129179443359375,0.023000000044703484,-0.04500000178813934,0.026000000536441803
1664051601054072600,8.139072509765626,0.035999998450279236,-0.03200000151991844,0.04100000113248825
1664051601063965700,8.148965576171875,0.1720000058412552,-0.04600000008940697,0.02800000086426735
1664051601073858300,8.1588583984375,0.05000000074505806,-0.01899999938905239,0.027000000700354576
1664051601083751200,8.168751220703125,-0.04500000178813934,-0.041999999433755875,0.024000000208616257
1664051601093644000,8.17864404296875,-0.16699999570846558,-0.041999999433755875,0.023000000044703484
1664051601103537400,8.188537353515626,0.11800000071525574,-0.052000001072883606,0.02199999988079071
1664051601113430300,8.19843017578125,0.1860000044107437,-0.052000001072883606,0.008999999612569809
1664051601123323100,8.2083232421875,0.11800000071525574,-0.02199999988079071,0.032999999821186066
1664051601133216300,8.21821630859375,-0.003000000026077032,-0.04899999871850014,0.004000000189989805
1664051601143109000,8.228109130859375,-0.03099999949336052,-0.04500000178813934,0.0020000000949949026
1664051601153002200,8.238002197265626,0.023000000044703484,-0.03099999949336052,0.0020000000949949026
1664051601162895000,8.24789501953125,0.05000000074505806,-0.028999999165534973,0.014999999664723873
1664051601172787700,8.25778759765625,0.14499999582767487,-0.028999999165534973,0.028999999165534973
1664051601182680800,8.267680908203126,0.11800000071525574,-0.03999999910593033,0.03999999910593033
1664051601192574000,8.277573974609375,0.008999999612569809,-0.026000000536441803,-0.0010000000474974513
1664051601202466800,8.287466796875,-0.04399999976158142,-0.035999998450279236,0.009999999776482582
1664051601212359700,8.297359619140625,-0.003000000026077032,-0.04899999871850014,0.05000000074505806
1664051601222252800,8.307252685546874,0.11800000071525574,-0.008999999612569809,0.02199999988079071
1664051601232145700,8.317145751953126,0.09099999815225601,-0.02199999988079071,-0.003000000026077032
1664051601242038500,8.32703857421875,0.05000000074505806,-0.019999999552965164,0.020999999716877937
1664051601251931400,8.336931396484376,0.023000000044703484,-0.03400000184774399,0.020999999716877937
1664051601261824300,8.34682421875,0.05000000074505806,-0.03099999949336052,0.007000000216066837
1664051601271717400,8.35671728515625,0.03700000047683716,-0.03200000151991844,0.020999999716877937
1664051601281610500,8.366610595703126,0.03700000047683716,-0.017000000923871994,0.032999999821186066
1664051601291503400,8.37650341796875,0.06400000303983688,-0.004000000189989805,0.007000000216066837
1664051601301396500,8.386396484375,0.09099999815225601,-0.01600000075995922,0.007000000216066837
1664051601311289300,8.396289306640625,0.023000000044703484,-0.0020000000949949026,0.04800000041723251
1664051601321182200,8.40618212890625,0.009999999776482582,-0.02800000086426735,0.007000000216066837
1664051601331075300,8.416075439453126,0.03700000047683716,-0.02800000086426735,0.007000000216066837
1664051601340968200,8.42596826171875,0.05000000074505806,-0.014000000432133675,0.00800000037997961
1664051601350861300,8.435861328125,0.06400000303983688,0,0.00800000037997961
1664051601360754200,8.445754150390625,0.07800000160932541,-0.013000000268220901,0.020999999716877937
1664051601370647000,8.45564697265625,0.07800000160932541,0,0.00800000037997961
1664051601380540000,8.465539794921876,0.05000000074505806,0,0.019999999552965164
1664051601390433000,8.47543310546875,0.023000000044703484,-0.013000000268220901,0.020999999716877937
1664051601400326000,8.485325927734374,-0.003000000026077032,-0.03799999877810478,0.007000000216066837
1664051601410218800,8.49521875,0.06400000303983688,-0.024000000208616257,0.00800000037997961
1664051601420112100,8.505112060546875,0.07800000160932541,-0.009999999776482582,0.020999999716877937
1664051601430005000,8.5150048828125,0.03700000047683716,-0.009999999776482582,0.03500000014901161
1664051601439897900,8.52489794921875,0.06400000303983688,-0.009999999776482582,0.00800000037997961
1664051601449791000,8.534791015625,0.05000000074505806,-0.009999999776482582,0.00800000037997961
1664051601459683800,8.544683837890625,0.008999999612569809,-0.02199999988079071,0.00800000037997961
1664051601469576700,8.55457666015625,0.03700000047683716,-0.008999999612569809,-0.003000000026077032
1664051601479469600,8.564469482421876,0.05000000074505806,-0.00800000037997961,0.02199999988079071
1664051601489362400,8.574362548828125,0.06400000303983688,-0.008999999612569809,-0.003000000026077032
1664051601499255600,8.584255615234374,0.05000000074505806,-0.00800000037997961,0.008999999612569809
1664051601509148700,8.594148681640625,0.03700000047683716,-0.02199999988079071,0.009999999776482582
1664051601519041500,8.60404150390625,0.05000000074505806,0.004000000189989805,0.009999999776482582
1664051601528934400,8.613934326171876,0.06400000303983688,-0.023000000044703484,-0.01600000075995922
1664051601538827300,8.6238271484375,0.05000000074505806,-0.020999999716877937,0.008999999612569809
1664051601548720400,8.633720458984374,0.023000000044703484,-0.007000000216066837,0.023000000044703484
1664051601558613200,8.64361328125,0.03700000047683716,0.004999999888241291,0.008999999612569809
1664051601568506000,8.653506103515625,0.05000000074505806,-0.00800000037997961,-0.003000000026077032
1664051601578399200,8.663399169921876,0.023000000044703484,-0.007000000216066837,-0.003000000026077032
1664051601588292400,8.673292236328125,0.023000000044703484,-0.007000000216066837,-0.003000000026077032
1664051601598185200,8.683185302734374,0.05000000074505806,-0.01899999938905239,0.020999999716877937
1664051601608078000,8.693078125,0.06400000303983688,-0.006000000052154064,0.00800000037997961
1664051601617971200,8.70297119140625,0.07800000160932541,-0.017999999225139618,-0.004000000189989805
1664051601627864000,8.712864013671876,0.07800000160932541,-0.004000000189989805,-0.004000000189989805
1664051601637757000,8.7227568359375,0.05000000074505806,0.00800000037997961,-0.003000000026077032
1664051601647649800,8.73264990234375,0.023000000044703484,-0.004999999888241291,0.009999999776482582
1664051601657543000,8.74254296875,0.05000000074505806,0.007000000216066837,-0.0020000000949949026
1664051601667435800,8.752435791015625,0.07699999958276749,0.007000000216066837,-0.0020000000949949026
1664051601677329000,8.762328857421876,0.07699999958276749,0.007000000216066837,-0.0010000000474974513
1664051601687221800,8.7722216796875,0.05000000074505806,0.007000000216066837,-0.0010000000474974513
1664051601697114600,8.782114501953124,0.03700000047683716,-0.004999999888241291,-0.014000000432133675
1664051601707007700,8.7920078125,0.023000000044703484,0.007000000216066837,-0.014000000432133675
1664051601716900600,8.801900634765625,0.06400000303983688,0.007000000216066837,-0.013000000268220901
1664051601726793500,8.81179345703125,0.09099999815225601,-0.006000000052154064,-0.027000000700354576
1664051601736686600,8.8216865234375,0.06400000303983688,-0.004999999888241291,-0.012000000104308128
1664051601746579700,8.831579833984375,0.05000000074505806,-0.004999999888241291,-0.013000000268220901
1664051601756472600,8.84147265625,0.023000000044703484,-0.004000000189989805,-0.012000000104308128
1664051601766365400,8.851365478515625,0.035999998450279236,-0.004000000189989805,0.014000000432133675
1664051601776258300,8.86125830078125,0.05000000074505806,-0.01600000075995922,-0.010999999940395355
1664051601786151400,8.8711513671875,0.06400000303983688,-0.01600000075995922,-0.012000000104308128
1664051601796044300,8.881044189453124,0.06400000303983688,0.008999999612569809,-0.010999999940395355
1664051601805937200,8.890937255859376,0.06400000303983688,0.009999999776482582,-0.012000000104308128
1664051601815830500,8.90083056640625,0.008999999612569809,0.008999999612569809,0.026000000536441803
1664051601825723400,8.910723388671874,0.05000000074505806,-0.003000000026077032,-0.0010000000474974513
1664051601835616000,8.920615966796875,0.10499999672174454,-0.003000000026077032,0
1664051601845509000,8.930509033203125,0.06400000303983688,0.023000000044703484,-0.014000000432133675
1664051601855402200,8.94040234375,0.05000000074505806,-0.0020000000949949026,-0.014000000432133675
1664051601865295000,8.950295166015625,0.008999999612569809,-0.0020000000949949026,0
1664051601875188000,8.96018798828125,0.05000000074505806,0.023000000044703484,-0.013000000268220901
1664051601885081000,8.9700810546875,0.07699999958276749,0.008999999612569809,0
1664051601894974000,8.979973876953125,0.05000000074505806,0.00800000037997961,-0.012000000104308128
1664051601904867000,8.9898671875,0.023000000044703484,-0.004000000189989805,0
1664051601914760000,8.999760009765625,0.023000000044703484,0.00800000037997961,0
1664051601924652800,9.00965283203125,0.05000000074505806,0.00800000037997961,-0.013000000268220901
1664051601934546000,9.0195458984375,0.05000000074505806,0.007000000216066837,-0.012000000104308128
1664051601944438800,9.029438720703125,0.06400000303983688,0.00800000037997961,0.0010000000474974513
1664051601954331600,9.03933154296875,0.035999998450279236,0.007000000216066837,-0.010999999940395355
1664051601964224800,9.049224853515625,0.035999998450279236,-0.004999999888241291,-0.02500000037252903
1664051601974117600,9.05911767578125,0.05000000074505806,-0.017999999225139618,0.014000000432133675
1664051601984010500,9.069010498046875,0.05000000074505806,0.008999999612569809,0.013000000268220901
1664051601993903600,9.078903564453125,0.06400000303983688,-0.004000000189989805,0
1664051602003796700,9.088796630859376,0.05000000074505806,-0.017000000923871994,-0.013000000268220901
1664051602013689600,9.098689697265625,0.05000000074505806,-0.003000000026077032,-0.012000000104308128
1664051602023582700,9.108582763671874,0.035999998450279236,0.023000000044703484,-0.012000000104308128
1664051602033475600,9.1184755859375,0.05000000074505806,0.020999999716877937,0.013000000268220901
1664051602043368400,9.128368408203125,0.06400000303983688,0.00800000037997961,0.013000000268220901
1664051602053261300,9.13826123046875,0.035999998450279236,0.019999999552965164,-0.012000000104308128
1664051602063154200,9.148154296875,0.05000000074505806,0.006000000052154064,-0.026000000536441803
1664051602073047000,9.158047119140624,0.035999998450279236,-0.006000000052154064,-0.024000000208616257
1664051602082940400,9.1679404296875,0.06400000303983688,-0.006000000052154064,-0.010999999940395355
1664051602092833300,9.177833251953125,0.05000000074505806,0.01899999938905239,-0.008999999612569809
1664051602102726100,9.18772607421875,0.05000000074505806,-0.007000000216066837,0.003000000026077032
1664051602112619000,9.197618896484375,0.035999998450279236,0.004999999888241291,-0.008999999612569809
1664051602122512100,9.20751220703125,0.05000000074505806,0.004999999888241291,-0.008999999612569809
1664051602132405000,9.217405029296875,0.06400000303983688,-0.007000000216066837,-0.00800000037997961
1664051602142297900,9.2272978515625,0.035999998450279236,-0.007000000216066837,-0.00800000037997961
1664051602152190700,9.237190673828126,0.06300000101327896,0.017999999225139618,-0.007000000216066837
1664051602162083800,9.247083740234375,0.07699999958276749,0.004000000189989805,0.006000000052154064
1664051602171977000,9.25697705078125,0.05000000074505806,-0.019999999552965164,-0.006000000052154064
1664051602181869800,9.266869873046875,0.035999998450279236,-0.019999999552965164,-0.019999999552965164
1664051602191762700,9.2767626953125,0.05000000074505806,0.004999999888241291,0.006000000052154064
1664051602201655600,9.286655517578126,0.05000000074505806,-0.007000000216066837,-0.019999999552965164
1664051602211548700,9.296548583984375,0.06300000101327896,-0.007000000216066837,-0.01899999938905239
1664051602221441500,9.306441650390624,0.035999998450279236,-0.007000000216066837,-0.004999999888241291
1664051602231334400,9.31633447265625,0.05000000074505806,0.017999999225139618,-0.004000000189989805
1664051602241227300,9.326227294921875,0.05000000074505806,0.004000000189989805,-0.03099999949336052
1664051602251120400,9.336120361328126,0.06300000101327896,-0.019999999552965164,0.00800000037997961
1664051602261013200,9.34601318359375,0.05000000074505806,0.006000000052154064,0.00800000037997961
1664051602270906400,9.35590625,0.035999998450279236,0.006000000052154064,-0.004000000189989805
1664051602280799500,9.365799560546876,0.07699999958276749,0.004999999888241291,0.00800000037997961
1664051602290692400,9.3756923828125,0.05000000074505806,-0.01899999938905239,-0.004000000189989805
1664051602300585200,9.385585205078126,0.06300000101327896,-0.006000000052154064,-0.017000000923871994
1664051602310478300,9.395478271484375,0.06300000101327896,0.006000000052154064,0.00800000037997961
1664051602320371200,9.40537109375,0.035999998450279236,-0.006000000052154064,0.00800000037997961
1664051602330264000,9.41526416015625,0.05000000074505806,-0.006000000052154064,0.00800000037997961
1664051602340157200,9.4251572265625,0.06300000101327896,0.007000000216066837,0.020999999716877937
1664051602350050000,9.435050048828124,0.06300000101327896,0.006000000052154064,0.007000000216066837
1664051602359943000,9.44494287109375,0.05000000074505806,-0.019999999552965164,0.007000000216066837
1664051602369836000,9.4548359375,0.05000000074505806,0.006000000052154064,-0.004999999888241291
1664051602379729000,9.46472900390625,0.06300000101327896,0.006000000052154064,-0.004999999888241291
1664051602389622000,9.4746220703125,0.05000000074505806,0.004999999888241291,0.007000000216066837
1664051602399515100,9.48451513671875,0.06300000101327896,0.01899999938905239,0.020999999716877937
1664051602409408000,9.494407958984375,0.05000000074505806,0.004999999888241291,-0.004999999888241291
1664051602419301000,9.504301025390625,0.035999998450279236,0.004999999888241291,-0.004999999888241291
1664051602429194000,9.514194091796876,0.035999998450279236,-0.007000000216066837,0.007000000216066837
1664051602439086800,9.5240869140625,0.06300000101327896,-0.020999999716877937,-0.004999999888241291
1664051602448979700,9.533979736328124,0.05000000074505806,-0.006000000052154064,-0.017000000923871994
1664051602458872800,9.543872802734375,0.035999998450279236,0.006000000052154064,-0.017000000923871994
1664051602468765700,9.553765625,0.06300000101327896,0.006000000052154064,-0.003000000026077032
1664051602478658600,9.563658447265626,0.035999998450279236,-0.019999999552965164,-0.003000000026077032
1664051602488551400,9.573551513671875,0.035999998450279236,0.004999999888241291,-0.003000000026077032
1664051602498444500,9.583444580078124,0.05000000074505806,0.01899999938905239,-0.01600000075995922
1664051602508337400,9.59333740234375,0.06300000101327896,-0.007000000216066837,-0.0020000000949949026
1664051602518230500,9.60323046875,0.06300000101327896,0.019999999552965164,-0.0020000000949949026
1664051602528123400,9.613123291015626,0.035999998450279236,-0.006000000052154064,-0.014999999664723873
1664051602538016300,9.623016357421875,0.035999998450279236,-0.006000000052154064,0.010999999940395355
1664051602547909000,9.6329091796875,0.05000000074505806,0.01899999938905239,-0.013000000268220901
1664051602557802200,9.64280224609375,0.07699999958276749,-0.007000000216066837,0
1664051602567695400,9.6526953125,0.04899999871850014,0.004999999888241291,-0.012000000104308128
1664051602577588200,9.662588134765626,0.04899999871850014,0.004999999888241291,0
1664051602587481300,9.6724814453125,0.06300000101327896,-0.019999999552965164,-0.010999999940395355
1664051602597374200,9.682374267578124,0.04899999871850014,-0.006000000052154064,-0.010999999940395355
1664051602607267000,9.69226708984375,0.04899999871850014,0.006000000052154064,0.0010000000474974513
1664051602617160000,9.702159912109375,0.035999998450279236,0.006000000052154064,0.014999999664723873
1664051602627053000,9.712052978515626,0.035999998450279236,-0.006000000052154064,0.0010000000474974513
1664051602636946000,9.72194580078125,0.04899999871850014,-0.019999999552965164,0.0010000000474974513
1664051602646838800,9.7318388671875,0.06300000101327896,-0.017999999225139618,0.0010000000474974513
1664051602656732000,9.74173193359375,0.035999998450279236,0.00800000037997961,0.0010000000474974513
1664051602666625000,9.751625,0.02199999988079071,0.007000000216066837,0.014000000432133675
1664051602676518000,9.761517822265626,0.04899999871850014,-0.01899999938905239,0.014000000432133675
1664051602686410800,9.77141064453125,0.035999998450279236,-0.004999999888241291,0.02500000037252903
1664051602696303900,9.781303955078124,0.02199999988079071,-0.004999999888241291,0.012000000104308128
1664051602706196700,9.79119677734375,0.035999998450279236,0.007000000216066837,-0.0010000000474974513
1664051602716089600,9.801089599609375,0.035999998450279236,-0.01899999938905239,-0.0010000000474974513
1664051602725982500,9.810982421875,0.05000000074505806,0.01899999938905239,-0.013000000268220901
1664051602735875600,9.82087548828125,0.05000000074505806,0.01899999938905239,0.013000000268220901
1664051602745768700,9.830768798828124,0.05000000074505806,0.017999999225139618,0.012000000104308128
1664051602755661600,9.84066162109375,0.035999998450279236,-0.00800000037997961,0.026000000536441803
1664051602765554700,9.8505546875,0.02199999988079071,-0.00800000037997961,0
1664051602775447600,9.860447509765624,0.05000000074505806,-0.00800000037997961,0.026000000536441803
1664051602785340400,9.87034033203125,0.05000000074505806,-0.007000000216066837,0
1664051602795233500,9.880233642578125,0.06300000101327896,0.006000000052154064,0
1664051602805126400,9.89012646484375,0.02199999988079071,0.017999999225139618,0
1664051602815019300,9.900019287109375,0.035999998450279236,0.03200000151991844,0
1664051602824912100,9.909912109375,0.05000000074505806,0.004000000189989805,0
1664051602834805200,9.91980517578125,0.035999998450279236,-0.008999999612569809,0.013000000268220901
1664051602844698400,9.929698486328125,0.02199999988079071,0.004000000189989805,-0.012000000104308128
1664051602854591200,9.93959130859375,0.035999998450279236,0.004000000189989805,0
1664051602864484000,9.949484130859375,0.035999998450279236,0.003000000026077032,0.013000000268220901
1664051602874377200,9.959377197265624,0.02199999988079071,0.017000000923871994,0.026000000536441803
1664051602884270000,9.96927001953125,0.04899999871850014,0.003000000026077032,-0.012000000104308128
1664051602894163200,9.9791630859375,0.04899999871850014,-0.009999999776482582,-0.012000000104308128
1664051602904055800,9.989055908203126,0.035999998450279236,0.003000000026077032,0
1664051602913949000,9.998948974609375,0.035999998450279236,-0.009999999776482582,0
1664051602923842000,10.008842041015624,0.035999998450279236,-0.02199999988079071,0.013000000268220901
1664051602933735000,10.01873486328125,0.035999998450279236,0.017999999225139618,0
1664051602943627800,10.028627685546875,0.035999998450279236,0.017000000923871994,0.012000000104308128
1664051602953521000,10.03852099609375,0.05000000074505806,-0.023000000044703484,-0.014000000432133675
1664051602963413800,10.048413818359375,0.05000000074505806,-0.008999999612569809,0
1664051602973307000,10.058306884765624,0.035999998450279236,0.004000000189989805,-0.014000000432133675
1664051602983200000,10.068199951171875,0.05000000074505806,0.01600000075995922,0
1664051602993092900,10.0780927734375,0.035999998450279236,-0.009999999776482582,0
1664051603002985700,10.08798583984375,0.06300000101327896,0.003000000026077032,0.012000000104308128
1664051603012878800,10.09787890625,0.05000000074505806,-0.009999999776482582,0.012000000104308128
1664051603022771700,10.107771728515624,0.06300000101327896,0.0020000000949949026,-0.013000000268220901
1664051603032664600,10.11766455078125,0.05000000074505806,0.01600000075995922,0.013000000268220901
1664051603042557400,10.127557373046875,0.05000000074505806,0.014999999664723873,0
1664051603052450300,10.1374501953125,0.05000000074505806,-0.010999999940395355,0
1664051603062343700,10.14734375,0.05000000074505806,-0.010999999940395355,0.012000000104308128
1664051603072236500,10.157236572265624,0.06300000101327896,0.0020000000949949026,0
1664051603082129400,10.16712939453125,0.02199999988079071,0.0020000000949949026,-0.013000000268220901
1664051603092022300,10.177022216796875,0.07699999958276749,0.0020000000949949026,0
1664051603101915400,10.186915283203126,0.05000000074505806,0.014000000432133675,0.013000000268220901
1664051603111808300,10.196808349609375,0.035999998450279236,0.0010000000474974513,0
1664051603121701000,10.206701171875,0.06300000101327896,0.013000000268220901,0
1664051603131594200,10.21659423828125,0.05000000074505806,0.013000000268220901,0
1664051603141487400,10.2264873046875,0.05000000074505806,-0.012000000104308128,0
1664051603151380200,10.236380126953126,0.035999998450279236,-0.012000000104308128,0.013000000268220901
1664051603161273000,10.246273193359375,0.05000000074505806,0,0
1664051603171166000,10.256166015625,0.06300000101327896,-0.012000000104308128,0
1664051603181059000,10.26605908203125,0.05000000074505806,0,0.013000000268220901
1664051603190952000,10.275951904296875,0.05000000074505806,0.027000000700354576,0
1664051603200844800,10.2858447265625,0.05000000074505806,0,0.012000000104308128
1664051603210737700,10.295737548828125,0.05000000074505806,0,-0.0010000000474974513
1664051603220630800,10.305630859375,0.05000000074505806,0,0
1664051603230524000,10.31552392578125,0.06300000101327896,-0.026000000536441803,0.012000000104308128
1664051603240416800,10.325416748046875,0.05000000074505806,0,-0.013000000268220901
1664051603250309600,10.3353095703125,0.06300000101327896,-0.013000000268220901,0
1664051603260202800,10.34520263671875,0.05000000074505806,-0.012000000104308128,0
1664051603270095600,10.355095703125,0.05000000074505806,-0.012000000104308128,0
1664051603279988500,10.364988525390626,0.05000000074505806,-0.010999999940395355,0
1664051603289881600,10.374881591796875,0.02199999988079071,0.014999999664723873,0
1664051603299774700,10.384774658203124,0.04899999871850014,0.014000000432133675,0
1664051603309667600,10.39466748046875,0.035999998450279236,-0.012000000104308128,0
1664051603319560400,10.404560546875,0.06300000101327896,0.0010000000474974513,-0.010999999940395355
1664051603329453300,10.414453369140626,0.035999998450279236,0,0.0020000000949949026
1664051603339346200,10.42434619140625,0.02199999988079071,0,0.0020000000949949026
1664051603349239300,10.4342392578125,0.04899999871850014,0,0.0010000000474974513
1664051603359132200,10.444132080078125,0.02199999988079071,0,-0.009999999776482582
1664051603369025000,10.45402490234375,0.035999998450279236,-0.026000000536441803,0.0020000000949949026
1664051603378918100,10.463918212890626,0.06300000101327896,-0.010999999940395355,0.014999999664723873
1664051603388811000,10.47381103515625,0.035999998450279236,-0.02500000037252903,0.02800000086426735
1664051603398703900,10.483703857421874,0.04899999871850014,0.0010000000474974513,0.014000000432133675
1664051603408597000,10.493596923828125,0.06300000101327896,0.0010000000474974513,0
1664051603418489900,10.50348974609375,0.035999998450279236,0.0010000000474974513,-0.010999999940395355
1664051603428383000,10.513383056640626,0.04899999871850014,0.0010000000474974513,0.014999999664723873
1664051603438275800,10.52327587890625,0.06300000101327896,0.0010000000474974513,0.026000000536441803
1664051603448168700,10.533168701171874,0.05000000074505806,-0.010999999940395355,-0.014000000432133675
1664051603458061800,10.543061767578125,0.05000000074505806,-0.010999999940395355,0
1664051603467954700,10.55295458984375,0.05000000074505806,0.01600000075995922,0
1664051603477847600,10.56284765625,0.02199999988079071,0.0020000000949949026,0
1664051603487740400,10.572740478515625,0.008999999612569809,-0.010999999940395355,0.013000000268220901
1664051603497633500,10.582633544921874,0.05000000074505806,-0.009999999776482582,0
1664051603507526400,10.5925263671875,0.05000000074505806,0.003000000026077032,0.013000000268220901
1664051603517419300,10.602419189453125,0.05000000074505806,0.0020000000949949026,0.012000000104308128
1664051603527312100,10.61231201171875,0.05000000074505806,0.0020000000949949026,0.012000000104308128
1664051603537205500,10.62220556640625,0.06300000101327896,-0.008999999612569809,0
1664051603547098400,10.632098388671874,0.05000000074505806,0.003000000026077032,0.012000000104308128
1664051603556991200,10.6419912109375,0.06300000101327896,-0.020999999716877937,0
1664051603566884000,10.651884033203125,0.06300000101327896,0.01899999938905239,0
1664051603576777200,10.661777099609376,0.05000000074505806,0.004999999888241291,0
1664051603586670000,10.671670166015625,0.05000000074505806,0.017999999225139618,0.013000000268220901
1664051603596563000,10.68156298828125,0.07699999958276749,0.004000000189989805,0.012000000104308128
1664051603606456000,10.6914560546875,0.06300000101327896,-0.00800000037997961,0
1664051603616349000,10.701348876953125,0.06300000101327896,0.004000000189989805,0
1664051603626241800,10.71124169921875,0.05000000074505806,0.004000000189989805,-0.014000000432133675
1664051603636134700,10.721134765625,0.035999998450279236,-0.020999999716877937,-0.012000000104308128
1664051603646027800,10.73102783203125,0.02199999988079071,0.006000000052154064,-0.026000000536441803
1664051603655921000,10.7409208984375,0.035999998450279236,0.004999999888241291,0
1664051603665813800,10.750813720703125,0.035999998450279236,0.01899999938905239,0
1664051603675707000,10.760706787109376,0.04899999871850014,0.004999999888241291,-0.010999999940395355
1664051603685599700,10.770599853515625,0.04899999871850014,-0.020999999716877937,-0.012000000104308128
1664051603695492600,10.78049267578125,0.04899999871850014,0.004000000189989805,-0.010999999940395355
1664051603705385500,10.790385498046875,0.02199999988079071,0.017999999225139618,-0.010999999940395355
1664051603715278600,10.800278564453125,0.035999998450279236,0.004000000189989805,-0.009999999776482582
1664051603725171700,10.810171630859376,0.04899999871850014,0.004000000189989805,0.003000000026077032
1664051603735064600,10.820064697265625,0.04899999871850014,0.004000000189989805,0.003000000026077032
1664051603744957400,10.82995751953125,0.04899999871850014,0.017000000923871994,0.01600000075995922
1664051603754850600,10.8398505859375,0.04899999871850014,0.01600000075995922,0.003000000026077032
1664051603764743400,10.849743408203125,0.04899999871850014,-0.010999999940395355,0.0020000000949949026
1664051603774636500,10.859636474609376,0.04899999871850014,-0.009999999776482582,0.014999999664723873
1664051603784529400,10.869529296875,0.07699999958276749,0.003000000026077032,0.014999999664723873
1664051603794422300,10.87942236328125,0.06300000101327896,-0.008999999612569809,-0.009999999776482582
1664051603804315100,10.889315185546875,0.035999998450279236,-0.008999999612569809,-0.009999999776482582
1664051603814208300,10.899208251953125,0.035999998450279236,0.004000000189989805,0.014999999664723873
1664051603824101400,10.909101318359374,0.04899999871850014,0.017000000923871994,-0.010999999940395355
1664051603833994200,10.918994140625,0.04899999871850014,-0.00800000037997961,-0.009999999776482582
1664051603843887000,10.92888720703125,0.04899999871850014,-0.00800000037997961,0.0020000000949949026
1664051603853780200,10.9387802734375,0.06300000101327896,-0.00800000037997961,0.0020000000949949026
1664051603863673000,10.948673095703125,0.035999998450279236,0.004999999888241291,0.0020000000949949026
1664051603873566200,10.958566162109374,0.04899999871850014,-0.007000000216066837,0.0020000000949949026
1664051603883458800,10.968458740234375,0.02199999988079071,0.032999999821186066,-0.009999999776482582
1664051603893352000,10.97835205078125,0.035999998450279236,0.004999999888241291,0.0020000000949949026
1664051603903245000,10.9882451171875,0.035999998450279236,0.004999999888241291,0.01600000075995922
1664051603913138000,10.998137939453125,0.06300000101327896,-0.007000000216066837,0.014999999664723873
1664051603923030800,11.00803076171875,0.04899999871850014,0.004999999888241291,0.0020000000949949026
1664051603932924000,11.017923828125,0.035999998450279236,0.017999999225139618,0.0020000000949949026
1664051603942816800,11.027816650390625,0.04899999871850014,0.004000000189989805,0.014999999664723873
1664051603952710000,11.0377099609375,0.04899999871850014,-0.00800000037997961,0.0020000000949949026
1664051603962602800,11.047602783203125,0.06300000101327896,0.004999999888241291,0.014999999664723873
1664051603972495600,11.05749560546875,0.035999998450279236,0.017000000923871994,0.027000000700354576
1664051603982388500,11.067388427734375,0.035999998450279236,-0.008999999612569809,0.013000000268220901
1664051603992281600,11.077281494140625,0.05000000074505806,-0.020999999716877937,0
1664051604002174500,11.087174560546876,0.06300000101327896,0.004999999888241291,0
1664051604012067600,11.097067626953125,0.05000000074505806,0.017000000923871994,0
1664051604021960400,11.10696044921875,0.02199999988079071,0.004000000189989805,0
1664051604031853300,11.116853271484375,0.035999998450279236,-0.020999999716877937,0.013000000268220901
1664051604041746200,11.12674609375,0.05000000074505806,-0.007000000216066837,0
1664051604051639000,11.13663916015625,0.13099999725818634,-0.00800000037997961,0.0020000000949949026
1664051604061532200,11.1465322265625,0.14499999582767487,-0.02500000037252903,0.020999999716877937
1664051604071425300,11.15642529296875,-0.017999999225139618,0.024000000208616257,-0.014000000432133675
1664051604081318100,11.166318115234375,-0.004999999888241291,0.023000000044703484,-0.012000000104308128
1664051604091211000,11.1762109375,0.02199999988079071,0.00800000037997961,-0.009999999776482582
1664051604101104000,11.186104248046876,0.00800000037997961,0.03700000047683716,0.0010000000474974513
1664051604110997000,11.1959970703125,0.03500000014901161,0.009999999776482582,-0.0010000000474974513
1664051604120890000,11.20589013671875,0.04899999871850014,0.012000000104308128,-0.004000000189989805
1664051604130783000,11.215782958984375,0.02199999988079071,0.013000000268220901,0.004999999888241291
1664051604140676000,11.225676025390625,0.09000000357627869,-0.013000000268220901,0.03200000151991844
